participant,trialnumber,blocknumber,condition,eventtype,RDKnumber,eventcolor,eventfrequency,eventnumber,response,RT,colorlum
1,1,1,1,distractor,2,blue,26,1,CR,NaN,offset_to_bckgrd
1,4,1,2,distractor,1,green,29,1,FA_proper,480.324840545654,offset_to_bckgrd
1,5,1,3,distractor,2,blue,26,1,CR,NaN,offset_to_bckgrd
1,7,1,5,target,1,green,29,1,hit,691.068442662557,offset_to_bckgrd
1,7,1,5,target,1,green,29,2,hit,498.630730311076,offset_to_bckgrd
1,10,1,3,target,1,green,29,1,hit,476.734749476115,offset_to_bckgrd
1,10,1,3,target,1,green,29,2,hit,597.076177597046,offset_to_bckgrd
1,11,1,2,distractor,1,green,29,1,FA_proper,433.077319463094,offset_to_bckgrd
1,11,1,2,target,2,blue,26,2,hit,479.985316594441,offset_to_bckgrd
1,15,1,4,target,2,blue,26,1,hit,401.867008209229,offset_to_bckgrd
1,15,1,4,distractor,1,green,29,2,CR,NaN,offset_to_bckgrd
1,31,1,4,distractor,1,green,29,1,FA_proper,463.471714655558,offset_to_bckgrd
1,31,1,4,target,2,blue,26,2,hit,503.143072128296,offset_to_bckgrd
1,38,1,3,target,1,green,29,1,hit,358.526945114136,offset_to_bckgrd
1,38,1,3,distractor,2,blue,26,2,CR,NaN,offset_to_bckgrd
1,39,1,4,distractor,1,green,29,1,CR,NaN,offset_to_bckgrd
1,40,1,4,distractor,1,green,29,1,FA_proper,416.284942626953,offset_to_bckgrd
1,40,1,4,target,2,blue,26,2,hit,566.797192891439,offset_to_bckgrd
1,45,1,6,distractor,1,green,29,1,CR,NaN,offset_to_bckgrd
1,45,1,6,distractor,1,green,29,2,FA_proper,696.949640909831,offset_to_bckgrd
1,50,2,5,distractor,2,blue,26,1,CR,NaN,offset_to_bckgrd
1,53,2,4,distractor,1,green,29,1,CR,NaN,offset_to_bckgrd
1,55,2,3,target,1,green,29,1,hit,640.602334340414,offset_to_bckgrd
1,55,2,3,distractor,2,blue,26,2,CR,NaN,offset_to_bckgrd
1,56,2,5,target,1,green,29,1,hit,476.217301686605,offset_to_bckgrd
1,66,2,2,target,2,blue,26,1,hit,488.88274828593,offset_to_bckgrd
1,66,2,2,target,2,blue,26,2,hit,543.922678629557,offset_to_bckgrd
1,70,2,1,distractor,2,blue,26,1,FA_proper,482.762368520101,offset_to_bckgrd
1,70,2,1,distractor,2,blue,26,2,FA_proper,511.127360661825,offset_to_bckgrd
1,71,2,2,distractor,1,green,29,1,CR,NaN,offset_to_bckgrd
1,72,2,4,distractor,1,green,29,1,CR,NaN,offset_to_bckgrd
1,77,2,1,target,1,green,29,1,miss,NaN,offset_to_bckgrd
1,87,2,5,target,1,green,29,1,hit,415.000057220459,offset_to_bckgrd
1,87,2,5,distractor,2,blue,26,2,CR,NaN,offset_to_bckgrd
1,93,3,2,target,2,blue,26,1,hit,659.554274876912,offset_to_bckgrd
1,94,3,1,distractor,2,blue,26,1,CR,NaN,offset_to_bckgrd
1,94,3,1,target,1,green,29,2,hit,518.398952484131,offset_to_bckgrd
1,96,3,6,distractor,1,green,29,1,CR,NaN,offset_to_bckgrd
1,99,3,2,target,2,blue,26,1,hit,410.651556650797,offset_to_bckgrd
1,99,3,2,distractor,1,green,29,2,FA_proper,468.502362569173,offset_to_bckgrd
1,100,3,6,distractor,1,green,29,1,CR,NaN,offset_to_bckgrd
1,101,3,4,distractor,1,green,29,1,FA_proper,432.384872436523,offset_to_bckgrd
1,103,3,3,target,1,green,29,1,hit,576.284519831339,offset_to_bckgrd
1,103,3,3,distractor,2,blue,26,2,CR,NaN,offset_to_bckgrd
1,104,3,1,distractor,2,blue,26,1,FA_proper,573.747746149699,offset_to_bckgrd
1,104,3,1,target,1,green,29,2,hit,565.595372517904,offset_to_bckgrd
1,105,3,2,target,2,blue,26,1,hit,421.326112747193,offset_to_bckgrd
1,111,3,3,distractor,2,blue,26,1,CR,NaN,offset_to_bckgrd
1,111,3,3,distractor,2,blue,26,2,CR,NaN,offset_to_bckgrd
1,117,3,6,distractor,1,green,29,1,CR,NaN,offset_to_bckgrd
1,119,3,6,distractor,1,green,29,1,CR,NaN,offset_to_bckgrd
1,119,3,6,target,2,blue,26,2,hit,425.469700495402,offset_to_bckgrd
1,120,3,1,target,1,green,29,1,hit,572.628752390543,offset_to_bckgrd
1,120,3,1,target,1,green,29,2,hit,499.950710932414,offset_to_bckgrd
1,121,3,1,target,1,green,29,1,hit,473.515669504802,offset_to_bckgrd
1,124,3,1,distractor,2,blue,26,1,CR,NaN,offset_to_bckgrd
1,124,3,1,target,1,green,29,2,hit,497.767114639283,offset_to_bckgrd
1,127,3,5,target,1,green,29,1,hit,464.857053756714,offset_to_bckgrd
1,127,3,5,target,1,green,29,2,hit,455.857038497925,offset_to_bckgrd
1,129,3,6,distractor,1,green,29,1,CR,NaN,offset_to_bckgrd
1,141,4,4,target,2,blue,26,1,hit,521.463886896769,offset_to_bckgrd
1,141,4,4,distractor,1,green,29,2,CR,NaN,offset_to_bckgrd
1,143,4,1,target,1,green,29,1,hit,449.243704477946,offset_to_bckgrd
1,143,4,1,target,1,green,29,2,hit,391.614151000977,offset_to_bckgrd
1,144,4,3,distractor,2,blue,26,1,CR,NaN,offset_to_bckgrd
1,144,4,3,target,1,green,29,2,hit,478.023497263591,offset_to_bckgrd
1,145,4,6,target,2,blue,26,1,hit,604.333337148031,offset_to_bckgrd
1,146,4,1,distractor,2,blue,26,1,CR,NaN,offset_to_bckgrd
1,147,4,4,target,2,blue,26,1,hit,742.811648050944,offset_to_bckgrd
1,149,4,1,target,1,green,29,1,hit,451.911290486654,offset_to_bckgrd
1,149,4,1,distractor,2,blue,26,2,CR,NaN,offset_to_bckgrd
1,156,4,5,target,1,green,29,1,hit,416.784048080444,offset_to_bckgrd
1,156,4,5,distractor,2,blue,26,2,CR,NaN,offset_to_bckgrd
1,158,4,1,distractor,2,blue,26,1,CR,NaN,offset_to_bckgrd
1,161,4,4,distractor,1,green,29,1,CR,NaN,offset_to_bckgrd
1,161,4,4,distractor,1,green,29,2,CR,NaN,offset_to_bckgrd
1,163,4,3,distractor,2,blue,26,1,FA_proper,627.675151824951,offset_to_bckgrd
1,163,4,3,target,1,green,29,2,hit,493.658924102783,offset_to_bckgrd
1,164,4,1,distractor,2,blue,26,1,CR,NaN,offset_to_bckgrd
1,167,4,6,distractor,1,green,29,1,FA_proper,540.877469380697,offset_to_bckgrd
1,168,4,3,target,1,green,29,1,hit,506.270249684651,offset_to_bckgrd
1,173,4,2,target,2,blue,26,1,hit,545.051685969035,offset_to_bckgrd
1,175,4,6,target,2,blue,26,1,hit,437.616284688314,offset_to_bckgrd
1,179,4,2,distractor,1,green,29,1,CR,NaN,offset_to_bckgrd
1,183,5,2,distractor,1,green,29,1,FA_proper,460.574690500895,offset_to_bckgrd
1,184,5,5,distractor,2,blue,26,1,CR,NaN,offset_to_bckgrd
1,186,5,2,distractor,1,green,29,1,CR,NaN,offset_to_bckgrd
1,188,5,5,distractor,2,blue,26,1,CR,NaN,offset_to_bckgrd
1,188,5,5,target,1,green,29,2,hit,468.732563654582,offset_to_bckgrd
1,194,5,4,target,2,blue,26,1,hit,447.51222928365,offset_to_bckgrd
1,194,5,4,target,2,blue,26,2,hit,623.171583811442,offset_to_bckgrd
1,201,5,1,distractor,2,blue,26,1,CR,NaN,offset_to_bckgrd
1,201,5,1,distractor,2,blue,26,2,CR,NaN,offset_to_bckgrd
1,204,5,5,distractor,2,blue,26,1,CR,NaN,offset_to_bckgrd
1,204,5,5,target,1,green,29,2,hit,420.977385838826,offset_to_bckgrd
1,205,5,1,distractor,2,blue,26,1,FA_proper,475.535329182943,offset_to_bckgrd
1,206,5,5,distractor,2,blue,26,1,CR,NaN,offset_to_bckgrd
1,207,5,1,target,1,green,29,1,hit,492.193524042765,offset_to_bckgrd
1,209,5,1,target,1,green,29,1,hit,482.916514078776,offset_to_bckgrd
1,209,5,1,distractor,2,blue,26,2,CR,NaN,offset_to_bckgrd
1,211,5,1,distractor,2,blue,26,1,FA_proper,814.555025100708,offset_to_bckgrd
1,212,5,5,target,1,green,29,1,hit,548.888651529948,offset_to_bckgrd
1,216,5,3,distractor,2,blue,26,1,CR,NaN,offset_to_bckgrd
1,220,5,3,distractor,2,blue,26,1,CR,NaN,offset_to_bckgrd
1,220,5,3,distractor,2,blue,26,2,FA_proper,393.298006057739,offset_to_bckgrd
1,221,5,6,target,2,blue,26,1,hit,505.131149291992,offset_to_bckgrd
1,222,5,1,distractor,2,blue,26,1,CR,NaN,offset_to_bckgrd
1,222,5,1,target,1,green,29,2,hit,507.514270146688,offset_to_bckgrd
1,223,5,3,target,1,green,29,1,hit,483.822329839071,offset_to_bckgrd
1,226,6,3,target,1,green,29,1,hit,466.556247075399,offset_to_bckgrd
1,230,6,2,target,2,blue,26,1,hit,479.257011413574,offset_to_bckgrd
1,230,6,2,distractor,1,green,29,2,CR,NaN,offset_to_bckgrd
1,231,6,4,target,2,blue,26,1,hit,616.326856613159,offset_to_bckgrd
1,233,6,4,distractor,1,green,29,1,FA_proper,469.28350130717,offset_to_bckgrd
1,234,6,3,distractor,2,blue,26,1,CR,NaN,offset_to_bckgrd
1,236,6,2,target,2,blue,26,1,hit,491.833527882894,offset_to_bckgrd
1,236,6,2,distractor,1,green,29,2,FA_proper,474.30788675944,offset_to_bckgrd
1,237,6,1,distractor,2,blue,26,1,CR,NaN,offset_to_bckgrd
1,237,6,1,distractor,2,blue,26,2,CR,NaN,offset_to_bckgrd
1,239,6,1,distractor,2,blue,26,1,CR,NaN,offset_to_bckgrd
1,240,6,3,distractor,2,blue,26,1,CR,NaN,offset_to_bckgrd
1,247,6,2,target,2,blue,26,1,hit,507.040929794311,offset_to_bckgrd
1,247,6,2,target,2,blue,26,2,hit,608.038489023844,offset_to_bckgrd
1,251,6,2,target,2,blue,26,1,hit,394.28874651591,offset_to_bckgrd
1,251,6,2,distractor,1,green,29,2,CR,NaN,offset_to_bckgrd
1,253,6,5,target,1,green,29,1,hit,544.126033782959,offset_to_bckgrd
1,254,6,2,distractor,1,green,29,1,CR,NaN,offset_to_bckgrd
1,254,6,2,target,2,blue,26,2,hit,554.417260487875,offset_to_bckgrd
1,256,6,6,target,2,blue,26,1,hit,464.55028851827,offset_to_bckgrd
1,256,6,6,distractor,1,green,29,2,CR,NaN,offset_to_bckgrd
1,262,6,5,target,1,green,29,1,hit,566.168880462646,offset_to_bckgrd
1,262,6,5,distractor,2,blue,26,2,CR,NaN,offset_to_bckgrd
1,263,6,2,target,2,blue,26,1,hit,905.331627527873,offset_to_bckgrd
1,264,6,6,distractor,1,green,29,1,CR,NaN,offset_to_bckgrd
1,265,6,2,target,2,blue,26,1,hit,568.336470921834,offset_to_bckgrd
1,269,6,3,distractor,2,blue,26,1,CR,NaN,offset_to_bckgrd
1,270,6,2,distractor,1,green,29,1,CR,NaN,offset_to_bckgrd
1,272,7,6,target,2,blue,26,1,hit,524.039761225382,offset_to_bckgrd
1,273,7,3,target,1,green,29,1,hit,457.216517130534,offset_to_bckgrd
1,276,7,4,target,2,blue,26,1,hit,469.193887710571,offset_to_bckgrd
1,276,7,4,target,2,blue,26,2,hit,527.872578303019,offset_to_bckgrd
1,280,7,3,distractor,2,blue,26,1,CR,NaN,offset_to_bckgrd
1,280,7,3,distractor,2,blue,26,2,FA_proper,610.822693506876,offset_to_bckgrd
1,281,7,4,distractor,1,green,29,1,CR,NaN,offset_to_bckgrd
1,281,7,4,target,2,blue,26,2,hit,520.340744654337,offset_to_bckgrd
1,285,7,3,target,1,green,29,1,hit,456.187470753988,offset_to_bckgrd
1,286,7,4,target,2,blue,26,1,hit,609.172836939494,offset_to_bckgrd
1,286,7,4,distractor,1,green,29,2,CR,NaN,offset_to_bckgrd
1,290,7,6,target,2,blue,26,1,hit,477.958647410075,offset_to_bckgrd
1,290,7,6,distractor,1,green,29,2,CR,NaN,offset_to_bckgrd
1,297,7,2,target,2,blue,26,1,hit,632.892449696858,offset_to_bckgrd
1,298,7,5,distractor,2,blue,26,1,CR,NaN,offset_to_bckgrd
1,298,7,5,target,1,green,29,2,hit,471.494785944621,offset_to_bckgrd
1,299,7,6,target,2,blue,26,1,hit,524.194224675497,offset_to_bckgrd
1,299,7,6,target,2,blue,26,2,hit,503.190263112386,offset_to_bckgrd
1,300,7,5,target,1,green,29,1,hit,626.655181248982,offset_to_bckgrd
1,303,7,2,distractor,1,green,29,1,CR,NaN,offset_to_bckgrd
1,305,7,5,distractor,2,blue,26,1,CR,NaN,offset_to_bckgrd
1,307,7,3,distractor,2,blue,26,1,CR,NaN,offset_to_bckgrd
1,308,7,1,target,1,green,29,1,hit,446.968841552734,offset_to_bckgrd
1,308,7,1,target,1,green,29,2,hit,427.725474039714,offset_to_bckgrd
1,309,7,6,target,2,blue,26,1,hit,456.252050399781,offset_to_bckgrd
1,309,7,6,target,2,blue,26,2,hit,523.63231976827,offset_to_bckgrd
1,310,7,5,distractor,2,blue,26,1,CR,NaN,offset_to_bckgrd
1,310,7,5,distractor,2,blue,26,2,CR,NaN,offset_to_bckgrd
1,312,7,2,distractor,1,green,29,1,CR,NaN,offset_to_bckgrd
1,312,7,2,distractor,1,green,29,2,CR,NaN,offset_to_bckgrd
1,313,7,5,target,1,green,29,1,hit,480.129830042521,offset_to_bckgrd
1,318,8,5,distractor,2,blue,26,1,CR,NaN,offset_to_bckgrd
1,319,8,6,distractor,1,green,29,1,CR,NaN,offset_to_bckgrd
1,319,8,6,target,2,blue,26,2,hit,537.354310353597,offset_to_bckgrd
1,327,8,4,target,2,blue,26,1,hit,475.525458653768,offset_to_bckgrd
1,329,8,2,distractor,1,green,29,1,FA_proper,469.765265782674,offset_to_bckgrd
1,329,8,2,distractor,1,green,29,2,CR,NaN,offset_to_bckgrd
1,330,8,5,target,1,green,29,1,hit,493.68896484375,offset_to_bckgrd
1,330,8,5,target,1,green,29,2,hit,530.779472986857,offset_to_bckgrd
1,331,8,3,distractor,2,blue,26,1,CR,NaN,offset_to_bckgrd
1,338,8,3,target,1,green,29,1,hit,561.746517817179,offset_to_bckgrd
1,341,8,4,target,2,blue,26,1,hit,497.095918655396,offset_to_bckgrd
1,341,8,4,distractor,1,green,29,2,CR,NaN,offset_to_bckgrd
1,344,8,5,target,1,green,29,1,hit,545.778306325276,offset_to_bckgrd
1,345,8,4,distractor,1,green,29,1,CR,NaN,offset_to_bckgrd
1,350,8,1,target,1,green,29,1,hit,554.508876800537,offset_to_bckgrd
1,350,8,1,distractor,2,blue,26,2,CR,NaN,offset_to_bckgrd
1,352,8,4,distractor,1,green,29,1,CR,NaN,offset_to_bckgrd
1,355,8,1,target,1,green,29,1,hit,419.302225112915,offset_to_bckgrd
1,355,8,1,target,1,green,29,2,hit,548.015483220418,offset_to_bckgrd
1,356,8,5,target,1,green,29,1,hit,504.153649012248,offset_to_bckgrd
1,358,8,6,distractor,1,green,29,1,CR,NaN,offset_to_bckgrd
1,366,9,1,distractor,2,blue,26,1,CR,NaN,offset_to_bckgrd
1,366,9,1,distractor,2,blue,26,2,CR,NaN,offset_to_bckgrd
1,368,9,2,distractor,1,green,29,1,CR,NaN,offset_to_bckgrd
1,369,9,6,target,2,blue,26,1,hit,686.885754267375,offset_to_bckgrd
1,369,9,6,target,2,blue,26,2,miss,NaN,offset_to_bckgrd
1,371,9,1,distractor,2,blue,26,1,CR,NaN,offset_to_bckgrd
1,373,9,6,distractor,1,green,29,1,CR,NaN,offset_to_bckgrd
1,375,9,3,target,1,green,29,1,hit,485.286315282186,offset_to_bckgrd
1,382,9,2,distractor,1,green,29,1,CR,NaN,offset_to_bckgrd
1,382,9,2,distractor,1,green,29,2,CR,NaN,offset_to_bckgrd
1,384,9,5,distractor,2,blue,26,1,CR,NaN,offset_to_bckgrd
1,384,9,5,target,1,green,29,2,hit,460.51238377889,offset_to_bckgrd
1,386,9,4,distractor,1,green,29,1,CR,NaN,offset_to_bckgrd
1,386,9,4,target,2,blue,26,2,hit,545.626751581828,offset_to_bckgrd
1,390,9,2,distractor,1,green,29,1,CR,NaN,offset_to_bckgrd
1,390,9,2,distractor,1,green,29,2,CR,NaN,offset_to_bckgrd
1,399,9,4,distractor,1,green,29,1,CR,NaN,offset_to_bckgrd
1,401,9,2,distractor,1,green,29,1,CR,NaN,offset_to_bckgrd
1,403,9,3,target,1,green,29,1,hit,479.921785990397,offset_to_bckgrd
1,403,9,3,distractor,2,blue,26,2,CR,NaN,offset_to_bckgrd
1,404,9,1,distractor,2,blue,26,1,CR,NaN,offset_to_bckgrd
1,405,9,1,target,1,green,29,1,hit,625.152651468913,offset_to_bckgrd
1,405,9,1,distractor,2,blue,26,2,CR,NaN,offset_to_bckgrd
1,406,10,1,distractor,2,blue,26,1,CR,NaN,offset_to_bckgrd
1,406,10,1,target,1,green,29,2,hit,445.326312383016,offset_to_bckgrd
1,414,10,1,distractor,2,blue,26,1,CR,NaN,offset_to_bckgrd
1,416,10,2,distractor,1,green,29,1,FA_proper,596.335077285767,offset_to_bckgrd
1,416,10,2,distractor,1,green,29,2,CR,NaN,offset_to_bckgrd
1,420,10,6,target,2,blue,26,1,hit,583.920272191365,offset_to_bckgrd
1,420,10,6,distractor,1,green,29,2,FA_proper,719.238726298015,offset_to_bckgrd
1,422,10,4,distractor,1,green,29,1,CR,NaN,offset_to_bckgrd
1,423,10,2,distractor,1,green,29,1,CR,NaN,offset_to_bckgrd
1,423,10,2,target,2,blue,26,2,hit,614.529720942179,offset_to_bckgrd
1,424,10,3,distractor,2,blue,26,1,CR,NaN,offset_to_bckgrd
1,430,10,4,distractor,1,green,29,1,CR,NaN,offset_to_bckgrd
1,430,10,4,distractor,1,green,29,2,FA_proper,448.857657114665,offset_to_bckgrd
1,445,10,6,distractor,1,green,29,1,CR,NaN,offset_to_bckgrd
1,445,10,6,target,2,blue,26,2,hit,394.763437906901,offset_to_bckgrd
1,448,10,4,target,2,blue,26,1,hit,599.086459477743,offset_to_bckgrd
1,449,10,1,distractor,2,blue,26,1,CR,NaN,offset_to_bckgrd
1,451,11,1,target,1,green,29,1,hit,603.481324513753,offset_to_bckgrd
1,461,11,4,distractor,1,green,29,1,CR,NaN,offset_to_bckgrd
1,461,11,4,distractor,1,green,29,2,CR,NaN,offset_to_bckgrd
1,462,11,5,target,1,green,29,1,hit,493.473831812541,offset_to_bckgrd
1,462,11,5,target,1,green,29,2,hit,498.7961769104,offset_to_bckgrd
1,463,11,5,distractor,2,blue,26,1,CR,NaN,offset_to_bckgrd
1,463,11,5,distractor,2,blue,26,2,CR,NaN,offset_to_bckgrd
1,464,11,3,distractor,2,blue,26,1,CR,NaN,offset_to_bckgrd
1,467,11,3,target,1,green,29,1,hit,762.036530176799,offset_to_bckgrd
1,471,11,6,distractor,1,green,29,1,CR,NaN,offset_to_bckgrd
1,476,11,5,distractor,2,blue,26,1,CR,NaN,offset_to_bckgrd
1,476,11,5,distractor,2,blue,26,2,CR,NaN,offset_to_bckgrd
1,477,11,2,target,2,blue,26,1,hit,542.291148503622,offset_to_bckgrd
1,477,11,2,target,2,blue,26,2,hit,446.972846984863,offset_to_bckgrd
1,481,11,1,distractor,2,blue,26,1,CR,NaN,offset_to_bckgrd
1,481,11,1,distractor,2,blue,26,2,CR,NaN,offset_to_bckgrd
1,482,11,6,target,2,blue,26,1,hit,704.942719141642,offset_to_bckgrd
1,482,11,6,distractor,1,green,29,2,CR,NaN,offset_to_bckgrd
1,483,11,4,target,2,blue,26,1,hit,435.757478078207,offset_to_bckgrd
1,483,11,4,distractor,1,green,29,2,CR,NaN,offset_to_bckgrd
1,484,11,2,distractor,1,green,29,1,CR,NaN,offset_to_bckgrd
1,484,11,2,distractor,1,green,29,2,CR,NaN,offset_to_bckgrd
1,488,11,2,distractor,1,green,29,1,CR,NaN,offset_to_bckgrd
1,488,11,2,target,2,blue,26,2,hit,461.093044281006,offset_to_bckgrd
1,491,11,1,distractor,2,blue,26,1,CR,NaN,offset_to_bckgrd
1,491,11,1,target,1,green,29,2,hit,447.567351659139,offset_to_bckgrd
1,493,11,5,target,1,green,29,1,hit,597.392988204956,offset_to_bckgrd
1,495,11,4,target,2,blue,26,1,hit,470.188093185425,offset_to_bckgrd
1,497,12,4,target,2,blue,26,1,hit,437.722794214885,offset_to_bckgrd
1,500,12,1,distractor,2,blue,26,1,CR,NaN,offset_to_bckgrd
1,501,12,1,target,1,green,29,1,hit,466.423527399699,offset_to_bckgrd
1,507,12,1,target,1,green,29,1,hit,553.102382024129,offset_to_bckgrd
1,509,12,6,distractor,1,green,29,1,CR,NaN,offset_to_bckgrd
1,517,12,3,target,1,green,29,1,hit,542.077239354452,offset_to_bckgrd
1,517,12,3,target,1,green,29,2,hit,554.733800888062,offset_to_bckgrd
1,526,12,6,distractor,1,green,29,1,CR,NaN,offset_to_bckgrd
1,528,12,5,distractor,2,blue,26,1,CR,NaN,offset_to_bckgrd
1,529,12,5,distractor,2,blue,26,1,FA_proper,576.021194458008,offset_to_bckgrd
1,530,12,4,target,2,blue,26,1,hit,511.868095397949,offset_to_bckgrd
1,530,12,4,target,2,blue,26,2,hit,475.078916549683,offset_to_bckgrd
1,536,12,5,distractor,2,blue,26,1,CR,NaN,offset_to_bckgrd
1,536,12,5,distractor,2,blue,26,2,CR,NaN,offset_to_bckgrd
1,538,12,1,distractor,2,blue,26,1,CR,NaN,offset_to_bckgrd
1,538,12,1,distractor,2,blue,26,2,FA_proper,523.909091949463,offset_to_bckgrd
1,539,12,3,target,1,green,29,1,hit,576.109441121419,offset_to_bckgrd
1,541,13,6,target,2,blue,26,1,hit,563.246281941731,offset_to_bckgrd
1,546,13,5,distractor,2,blue,26,1,CR,NaN,offset_to_bckgrd
1,546,13,5,distractor,2,blue,26,2,CR,NaN,offset_to_bckgrd
1,548,13,4,target,2,blue,26,1,hit,665.617354710897,offset_to_bckgrd
1,552,13,2,target,2,blue,26,1,hit,513.012027740479,offset_to_bckgrd
1,552,13,2,target,2,blue,26,2,hit,468.05100440979,offset_to_bckgrd
1,553,13,2,distractor,1,green,29,1,CR,NaN,offset_to_bckgrd
1,554,13,2,target,2,blue,26,1,hit,479.833714167277,offset_to_bckgrd
1,555,13,6,distractor,1,green,29,1,CR,NaN,offset_to_bckgrd
1,555,13,6,distractor,1,green,29,2,CR,NaN,offset_to_bckgrd
1,556,13,6,distractor,1,green,29,1,CR,NaN,offset_to_bckgrd
1,556,13,6,distractor,1,green,29,2,CR,NaN,offset_to_bckgrd
1,558,13,6,target,2,blue,26,1,hit,659.435939788818,offset_to_bckgrd
1,559,13,2,distractor,1,green,29,1,CR,NaN,offset_to_bckgrd
1,559,13,2,distractor,1,green,29,2,CR,NaN,offset_to_bckgrd
1,567,13,6,target,2,blue,26,1,hit,603.428570429484,offset_to_bckgrd
1,567,13,6,target,2,blue,26,2,hit,569.462649027506,offset_to_bckgrd
1,568,13,4,distractor,1,green,29,1,CR,NaN,offset_to_bckgrd
1,570,13,3,distractor,2,blue,26,1,CR,NaN,offset_to_bckgrd
1,572,13,6,target,2,blue,26,1,hit,714.567677179972,offset_to_bckgrd
1,576,13,2,target,2,blue,26,1,miss,NaN,offset_to_bckgrd
1,576,13,2,target,2,blue,26,2,hit,472.771390279134,offset_to_bckgrd
1,577,13,6,target,2,blue,26,1,miss,NaN,offset_to_bckgrd
1,577,13,6,distractor,1,green,29,2,FA_proper,478.074661890666,offset_to_bckgrd
1,585,13,1,target,1,green,29,1,hit,514.248085021973,offset_to_bckgrd
1,585,13,1,target,1,green,29,2,hit,422.343063354492,offset_to_bckgrd
1,587,14,2,distractor,1,green,29,1,CR,NaN,offset_to_bckgrd
1,590,14,5,distractor,2,blue,26,1,CR,NaN,offset_to_bckgrd
1,590,14,5,distractor,2,blue,26,2,CR,NaN,offset_to_bckgrd
1,593,14,2,target,2,blue,26,1,hit,752.594232559204,offset_to_bckgrd
1,595,14,3,distractor,2,blue,26,1,CR,NaN,offset_to_bckgrd
1,595,14,3,target,1,green,29,2,hit,422.670888900757,offset_to_bckgrd
1,598,14,4,distractor,1,green,29,1,FA_proper,602.790339787801,offset_to_bckgrd
1,601,14,3,target,1,green,29,1,hit,614.142862955729,offset_to_bckgrd
1,607,14,1,target,1,green,29,1,hit,459.051942825317,offset_to_bckgrd
1,607,14,1,distractor,2,blue,26,2,CR,NaN,offset_to_bckgrd
1,608,14,2,distractor,1,green,29,1,CR,NaN,offset_to_bckgrd
1,608,14,2,target,2,blue,26,2,hit,478.393761316936,offset_to_bckgrd
1,612,14,6,target,2,blue,26,1,hit,582.268683115642,offset_to_bckgrd
1,612,14,6,target,2,blue,26,2,hit,467.021306355794,offset_to_bckgrd
1,620,14,6,target,2,blue,26,1,hit,570.936425526937,offset_to_bckgrd
1,621,14,5,target,1,green,29,1,hit,585.895824432373,offset_to_bckgrd
1,621,14,5,target,1,green,29,2,hit,417.609564463297,offset_to_bckgrd
1,623,14,2,distractor,1,green,29,1,CR,NaN,offset_to_bckgrd
1,626,14,5,distractor,2,blue,26,1,CR,NaN,offset_to_bckgrd
1,626,14,5,target,1,green,29,2,hit,488.510815302531,offset_to_bckgrd
1,628,14,3,distractor,2,blue,26,1,CR,NaN,offset_to_bckgrd
1,628,14,3,distractor,2,blue,26,2,CR,NaN,offset_to_bckgrd
1,632,15,3,distractor,2,blue,26,1,CR,NaN,offset_to_bckgrd
1,632,15,3,distractor,2,blue,26,2,CR,NaN,offset_to_bckgrd
1,634,15,1,target,1,green,29,1,hit,500.207901000977,offset_to_bckgrd
1,634,15,1,distractor,2,blue,26,2,CR,NaN,offset_to_bckgrd
1,643,15,5,distractor,2,blue,26,1,CR,NaN,offset_to_bckgrd
1,648,15,1,target,1,green,29,1,hit,581.671682993571,offset_to_bckgrd
1,650,15,4,target,2,blue,26,1,hit,516.073671976726,offset_to_bckgrd
1,653,15,5,target,1,green,29,1,hit,583.899656931559,offset_to_bckgrd
1,656,15,5,target,1,green,29,1,hit,524.783802032471,offset_to_bckgrd
1,656,15,5,distractor,2,blue,26,2,CR,NaN,offset_to_bckgrd
1,657,15,2,target,2,blue,26,1,hit,451.206652323405,offset_to_bckgrd
1,657,15,2,distractor,1,green,29,2,CR,NaN,offset_to_bckgrd
1,664,15,3,distractor,2,blue,26,1,CR,NaN,offset_to_bckgrd
1,664,15,3,distractor,2,blue,26,2,CR,NaN,offset_to_bckgrd
1,669,15,3,target,1,green,29,1,hit,535.761801401774,offset_to_bckgrd
1,669,15,3,distractor,2,blue,26,2,FA_proper,510.506518681844,offset_to_bckgrd
1,671,15,4,target,2,blue,26,1,hit,513.504155476888,offset_to_bckgrd
1,671,15,4,target,2,blue,26,2,hit,471.696170171102,offset_to_bckgrd
1,673,15,4,distractor,1,green,29,1,CR,NaN,offset_to_bckgrd
1,675,15,5,distractor,2,blue,26,1,CR,NaN,offset_to_bckgrd
1,676,16,5,target,1,green,29,1,hit,627.270126342773,offset_to_bckgrd
1,676,16,5,target,1,green,29,2,hit,440.928856531779,offset_to_bckgrd
1,681,16,6,distractor,1,green,29,1,CR,NaN,offset_to_bckgrd
1,681,16,6,target,2,blue,26,2,hit,528.667704264323,offset_to_bckgrd
1,686,16,3,target,1,green,29,1,miss,NaN,offset_to_bckgrd
1,686,16,3,target,1,green,29,2,hit,640.139007568359,offset_to_bckgrd
1,693,16,6,target,2,blue,26,1,hit,543.529987335205,offset_to_bckgrd
1,694,16,4,target,2,blue,26,1,hit,445.703125,offset_to_bckgrd
1,698,16,3,target,1,green,29,1,hit,454.068215688069,offset_to_bckgrd
1,698,16,3,target,1,green,29,2,hit,522.438176472982,offset_to_bckgrd
1,702,16,3,target,1,green,29,1,hit,688.015079498291,offset_to_bckgrd
1,702,16,3,target,1,green,29,2,hit,410.766760508219,offset_to_bckgrd
1,704,16,5,target,1,green,29,1,hit,555.427344640096,offset_to_bckgrd
1,705,16,3,distractor,2,blue,26,1,CR,NaN,offset_to_bckgrd
1,705,16,3,target,1,green,29,2,hit,429.459047317505,offset_to_bckgrd
1,706,16,4,distractor,1,green,29,1,CR,NaN,offset_to_bckgrd
1,706,16,4,distractor,1,green,29,2,CR,NaN,offset_to_bckgrd
1,708,16,1,target,1,green,29,1,hit,721.557267506917,offset_to_bckgrd
1,715,16,4,target,2,blue,26,1,hit,444.489908218384,offset_to_bckgrd
1,715,16,4,distractor,1,green,29,2,CR,NaN,offset_to_bckgrd
1,716,16,4,target,2,blue,26,1,miss,NaN,offset_to_bckgrd
1,717,16,1,target,1,green,29,1,hit,555.634148915609,offset_to_bckgrd
1,720,16,5,distractor,2,blue,26,1,CR,NaN,offset_to_bckgrd
1,722,17,2,target,2,blue,26,1,hit,532.785495122273,offset_to_bckgrd
1,730,17,2,distractor,1,green,29,1,FA_proper,474.649318059286,offset_to_bckgrd
1,732,17,6,distractor,1,green,29,1,CR,NaN,offset_to_bckgrd
1,732,17,6,target,2,blue,26,2,hit,560.221274693807,offset_to_bckgrd
1,733,17,4,target,2,blue,26,1,hit,433.13562075297,offset_to_bckgrd
1,733,17,4,target,2,blue,26,2,hit,440.629418691,offset_to_bckgrd
1,737,17,6,distractor,1,green,29,1,CR,NaN,offset_to_bckgrd
1,737,17,6,distractor,1,green,29,2,FA_proper,436.551173528035,offset_to_bckgrd
1,738,17,6,distractor,1,green,29,1,CR,NaN,offset_to_bckgrd
1,738,17,6,distractor,1,green,29,2,CR,NaN,offset_to_bckgrd
1,742,17,3,target,1,green,29,1,hit,483.316214879354,offset_to_bckgrd
1,744,17,4,distractor,1,green,29,1,CR,NaN,offset_to_bckgrd
1,744,17,4,distractor,1,green,29,2,CR,NaN,offset_to_bckgrd
1,746,17,5,distractor,2,blue,26,1,CR,NaN,offset_to_bckgrd
1,746,17,5,distractor,2,blue,26,2,CR,NaN,offset_to_bckgrd
1,748,17,1,target,1,green,29,1,miss,NaN,offset_to_bckgrd
1,752,17,6,target,2,blue,26,1,hit,436.297035217285,offset_to_bckgrd
1,752,17,6,target,2,blue,26,2,hit,515.647077560425,offset_to_bckgrd
1,753,17,3,target,1,green,29,1,hit,557.597382863363,offset_to_bckgrd
1,761,17,2,distractor,1,green,29,1,FA_proper,475.697676340739,offset_to_bckgrd
1,761,17,2,target,2,blue,26,2,hit,506.939713160197,offset_to_bckgrd
1,763,17,2,target,2,blue,26,1,hit,447.477054595947,offset_to_bckgrd
1,763,17,2,distractor,1,green,29,2,CR,NaN,offset_to_bckgrd
1,764,17,6,distractor,1,green,29,1,CR,NaN,offset_to_bckgrd
1,764,17,6,target,2,blue,26,2,hit,500.630458196004,offset_to_bckgrd
1,770,18,1,distractor,2,blue,26,1,CR,NaN,offset_to_bckgrd
1,774,18,3,distractor,2,blue,26,1,CR,NaN,offset_to_bckgrd
1,774,18,3,distractor,2,blue,26,2,CR,NaN,offset_to_bckgrd
1,782,18,5,target,1,green,29,1,hit,531.9420337677,offset_to_bckgrd
1,784,18,5,distractor,2,blue,26,1,CR,NaN,offset_to_bckgrd
1,788,18,6,target,2,blue,26,1,miss,NaN,offset_to_bckgrd
1,794,18,3,distractor,2,blue,26,1,CR,NaN,offset_to_bckgrd
1,796,18,4,distractor,1,green,29,1,CR,NaN,offset_to_bckgrd
1,797,18,3,target,1,green,29,1,miss,NaN,offset_to_bckgrd
1,797,18,3,distractor,2,blue,26,2,CR,NaN,offset_to_bckgrd
1,801,18,3,distractor,2,blue,26,1,CR,NaN,offset_to_bckgrd
1,801,18,3,target,1,green,29,2,hit,492.568794886271,offset_to_bckgrd
1,807,18,4,distractor,1,green,29,1,CR,NaN,offset_to_bckgrd
1,807,18,4,target,2,blue,26,2,hit,419.10146077474,offset_to_bckgrd
1,808,18,3,distractor,2,blue,26,1,CR,NaN,offset_to_bckgrd
1,815,19,1,target,1,green,29,1,hit,480.558919906616,offset_to_bckgrd
1,815,19,1,target,1,green,29,2,hit,636.19130452474,offset_to_bckgrd
1,820,19,4,target,2,blue,26,1,hit,686.341094970703,offset_to_bckgrd
1,821,19,6,target,2,blue,26,1,hit,693.224906921387,offset_to_bckgrd
1,824,19,5,distractor,2,blue,26,1,CR,NaN,offset_to_bckgrd
1,825,19,5,distractor,2,blue,26,1,CR,NaN,offset_to_bckgrd
1,826,19,6,target,2,blue,26,1,miss,NaN,offset_to_bckgrd
1,829,19,1,distractor,2,blue,26,1,CR,NaN,offset_to_bckgrd
1,829,19,1,distractor,2,blue,26,2,CR,NaN,offset_to_bckgrd
1,830,19,2,target,2,blue,26,1,hit,653.494294484457,offset_to_bckgrd
1,835,19,5,distractor,2,blue,26,1,CR,NaN,offset_to_bckgrd
1,835,19,5,target,1,green,29,2,hit,432.862361272176,offset_to_bckgrd
1,836,19,4,target,2,blue,26,1,hit,587.346839904785,offset_to_bckgrd
1,836,19,4,target,2,blue,26,2,hit,454.026571909586,offset_to_bckgrd
1,844,19,4,target,2,blue,26,1,miss,NaN,offset_to_bckgrd
1,846,19,1,target,1,green,29,1,hit,527.239894866943,offset_to_bckgrd
1,850,19,2,target,2,blue,26,1,hit,624.64394569397,offset_to_bckgrd
1,850,19,2,target,2,blue,26,2,hit,453.831227620442,offset_to_bckgrd
1,855,19,4,distractor,1,green,29,1,CR,NaN,offset_to_bckgrd
1,855,19,4,distractor,1,green,29,2,CR,NaN,offset_to_bckgrd
1,858,20,6,distractor,1,green,29,1,CR,NaN,offset_to_bckgrd
1,858,20,6,distractor,1,green,29,2,FA_proper,535.190010070801,offset_to_bckgrd
1,861,20,3,target,1,green,29,1,hit,626.753044128418,offset_to_bckgrd
1,861,20,3,target,1,green,29,2,hit,425.997972488403,offset_to_bckgrd
1,867,20,6,distractor,1,green,29,1,CR,NaN,offset_to_bckgrd
1,867,20,6,distractor,1,green,29,2,CR,NaN,offset_to_bckgrd
1,869,20,5,target,1,green,29,1,hit,626.192998886108,offset_to_bckgrd
1,869,20,5,distractor,2,blue,26,2,CR,NaN,offset_to_bckgrd
1,870,20,6,target,2,blue,26,1,hit,527.763668696085,offset_to_bckgrd
1,870,20,6,distractor,1,green,29,2,CR,NaN,offset_to_bckgrd
1,871,20,2,target,2,blue,26,1,hit,665.704965591431,offset_to_bckgrd
1,872,20,2,target,2,blue,26,1,hit,553.560431798299,offset_to_bckgrd
1,879,20,4,distractor,1,green,29,1,CR,NaN,offset_to_bckgrd
1,879,20,4,target,2,blue,26,2,hit,537.530533472697,offset_to_bckgrd
1,882,20,6,distractor,1,green,29,1,CR,NaN,offset_to_bckgrd
1,886,20,6,distractor,1,green,29,1,CR,NaN,offset_to_bckgrd
1,888,20,3,distractor,2,blue,26,1,CR,NaN,offset_to_bckgrd
1,889,20,1,target,1,green,29,1,hit,585.055383046468,offset_to_bckgrd
1,892,20,5,target,1,green,29,1,hit,522.782945632935,offset_to_bckgrd
1,892,20,5,distractor,2,blue,26,2,CR,NaN,offset_to_bckgrd
1,894,20,4,distractor,1,green,29,1,CR,NaN,offset_to_bckgrd
1,894,20,4,distractor,1,green,29,2,FA_proper,503.466351826986,offset_to_bckgrd
1,896,20,5,target,1,green,29,1,miss,NaN,offset_to_bckgrd
1,899,20,3,distractor,2,blue,26,1,CR,NaN,offset_to_bckgrd
1,899,20,3,target,1,green,29,2,hit,449.96509552002,offset_to_bckgrd
2,1,1,4,target,2,blue,29,1,miss,NaN,offset_to_bckgrd
2,1,1,4,distractor,1,green,26,2,FA_proper,568.453073501587,offset_to_bckgrd
2,4,1,4,distractor,1,green,26,1,CR,NaN,offset_to_bckgrd
2,4,1,4,target,2,blue,29,2,hit,835.087919235229,offset_to_bckgrd
2,5,1,4,target,2,blue,29,1,miss,NaN,offset_to_bckgrd
2,6,1,4,distractor,1,green,26,1,FA_proper,514.889494578043,offset_to_bckgrd
2,6,1,4,target,2,blue,29,2,hit,582.254981994629,offset_to_bckgrd
2,10,1,1,target,1,green,26,1,hit,504.999097188314,offset_to_bckgrd
2,10,1,1,distractor,2,blue,29,2,FA_proper,360.657930374146,offset_to_bckgrd
2,11,1,5,distractor,2,blue,29,1,CR,NaN,offset_to_bckgrd
2,11,1,5,distractor,2,blue,29,2,CR,NaN,offset_to_bckgrd
2,14,1,3,target,1,green,26,1,hit,592.849969863892,offset_to_bckgrd
2,14,1,3,distractor,2,blue,29,2,FA_proper,367.867994308472,offset_to_bckgrd
2,18,1,3,target,1,green,26,1,hit,586.505031585693,offset_to_bckgrd
2,23,1,4,distractor,1,green,26,1,FA_proper,531.438827514648,offset_to_bckgrd
2,25,1,6,distractor,1,green,26,1,FA_proper,552.499103546143,offset_to_bckgrd
2,25,1,6,distractor,1,green,26,2,FA_proper,510.765027999878,offset_to_bckgrd
2,29,1,5,distractor,2,blue,29,1,CR,NaN,offset_to_bckgrd
2,29,1,5,distractor,2,blue,29,2,CR,NaN,offset_to_bckgrd
2,31,1,4,target,2,blue,29,1,hit,557.326300938924,offset_to_bckgrd
2,31,1,4,distractor,1,green,26,2,FA_proper,467.52077738444,offset_to_bckgrd
2,32,1,4,target,2,blue,29,1,hit,573.513714472453,offset_to_bckgrd
2,32,1,4,target,2,blue,29,2,hit,283.841896057129,offset_to_bckgrd
2,35,1,1,distractor,2,blue,29,1,CR,NaN,offset_to_bckgrd
2,35,1,1,target,1,green,26,2,hit,803.027963638305,offset_to_bckgrd
2,37,1,1,target,1,green,26,1,hit,544.890022277832,offset_to_bckgrd
2,37,1,1,target,1,green,26,2,hit,425.05202293396,offset_to_bckgrd
2,52,2,3,target,1,green,26,1,hit,642.432467142741,offset_to_bckgrd
2,54,2,2,target,2,blue,29,1,hit,659.259033203125,offset_to_bckgrd
2,54,2,2,distractor,1,green,26,2,FA_proper,386.296987533569,offset_to_bckgrd
2,55,2,5,target,1,green,26,1,hit,602.19407081604,offset_to_bckgrd
2,56,2,5,target,1,green,26,1,hit,604.057296117147,offset_to_bckgrd
2,57,2,3,target,1,green,26,1,hit,534.650309880575,offset_to_bckgrd
2,58,2,2,target,2,blue,29,1,hit,482.180388768514,offset_to_bckgrd
2,59,2,4,distractor,1,green,26,1,FA_proper,570.116996765137,offset_to_bckgrd
2,62,2,2,distractor,1,green,26,1,FA_proper,591.870069503784,offset_to_bckgrd
2,62,2,2,distractor,1,green,26,2,CR,NaN,offset_to_bckgrd
2,68,2,1,distractor,2,blue,29,1,CR,NaN,offset_to_bckgrd
2,68,2,1,distractor,2,blue,29,2,CR,NaN,offset_to_bckgrd
2,70,2,1,distractor,2,blue,29,1,CR,NaN,offset_to_bckgrd
2,70,2,1,distractor,2,blue,29,2,FA_proper,202.909771601359,offset_to_bckgrd
2,71,2,3,target,1,green,26,1,hit,559.79282061259,offset_to_bckgrd
2,71,2,3,target,1,green,26,2,hit,398.797861735026,offset_to_bckgrd
2,73,2,5,target,1,green,26,1,hit,885.347938537598,offset_to_bckgrd
2,74,2,4,distractor,1,green,26,1,CR,NaN,offset_to_bckgrd
2,74,2,4,distractor,1,green,26,2,CR,NaN,offset_to_bckgrd
2,80,2,2,distractor,1,green,26,1,CR,NaN,offset_to_bckgrd
2,80,2,2,distractor,1,green,26,2,CR,NaN,offset_to_bckgrd
2,85,2,2,distractor,1,green,26,1,FA_proper,534.572664896647,offset_to_bckgrd
2,85,2,2,distractor,1,green,26,2,CR,NaN,offset_to_bckgrd
2,86,2,4,target,2,blue,29,1,hit,680.014308293661,offset_to_bckgrd
2,87,2,6,target,2,blue,29,1,hit,544.458882013957,offset_to_bckgrd
2,87,2,6,target,2,blue,29,2,hit,422.893095016479,offset_to_bckgrd
2,90,2,5,distractor,2,blue,29,1,CR,NaN,offset_to_bckgrd
2,94,3,4,distractor,1,green,26,1,CR,NaN,offset_to_bckgrd
2,94,3,4,distractor,1,green,26,2,CR,NaN,offset_to_bckgrd
2,96,3,5,distractor,2,blue,29,1,CR,NaN,offset_to_bckgrd
2,96,3,5,target,1,green,26,2,hit,752.402750651042,offset_to_bckgrd
2,101,3,6,distractor,1,green,26,1,CR,NaN,offset_to_bckgrd
2,102,3,1,target,1,green,26,1,hit,539.590756098429,offset_to_bckgrd
2,104,3,2,target,2,blue,29,1,hit,446.688111623128,offset_to_bckgrd
2,104,3,2,distractor,1,green,26,2,FA_proper,366.215578715006,offset_to_bckgrd
2,109,3,1,distractor,2,blue,29,1,CR,NaN,offset_to_bckgrd
2,109,3,1,distractor,2,blue,29,2,FA_proper,523.748381932577,offset_to_bckgrd
2,111,3,3,distractor,2,blue,29,1,CR,NaN,offset_to_bckgrd
2,114,3,4,target,2,blue,29,1,hit,732.302729288737,offset_to_bckgrd
2,115,3,3,target,1,green,26,1,hit,458.727884292603,offset_to_bckgrd
2,118,3,5,target,1,green,26,1,hit,452.987273534139,offset_to_bckgrd
2,118,3,5,target,1,green,26,2,hit,367.359654108683,offset_to_bckgrd
2,125,3,6,target,2,blue,29,1,hit,664.192326863607,offset_to_bckgrd
2,128,3,2,distractor,1,green,26,1,FA_proper,632.694419225057,offset_to_bckgrd
2,129,3,5,distractor,2,blue,29,1,FA_proper,413.777240117391,offset_to_bckgrd
2,131,3,5,distractor,2,blue,29,1,CR,NaN,offset_to_bckgrd
2,135,3,3,target,1,green,26,1,hit,589.487075805664,offset_to_bckgrd
2,135,3,3,distractor,2,blue,29,2,FA_proper,448.873360951742,offset_to_bckgrd
2,138,4,3,target,1,green,26,1,hit,527.778275807698,offset_to_bckgrd
2,138,4,3,distractor,2,blue,29,2,FA_proper,365.711116790771,offset_to_bckgrd
2,140,4,6,target,2,blue,29,1,hit,535.324319203695,offset_to_bckgrd
2,142,4,1,distractor,2,blue,29,1,CR,NaN,offset_to_bckgrd
2,142,4,1,distractor,2,blue,29,2,CR,NaN,offset_to_bckgrd
2,143,4,1,target,1,green,26,1,hit,534.657144546509,offset_to_bckgrd
2,143,4,1,target,1,green,26,2,hit,324.471632639567,offset_to_bckgrd
2,146,4,4,target,2,blue,29,1,hit,553.306277592977,offset_to_bckgrd
2,146,4,4,target,2,blue,29,2,hit,296.401246388753,offset_to_bckgrd
2,150,4,6,target,2,blue,29,1,miss,NaN,offset_to_bckgrd
2,153,4,6,target,2,blue,29,1,hit,579.214779535929,offset_to_bckgrd
2,158,4,2,distractor,1,green,26,1,CR,NaN,offset_to_bckgrd
2,158,4,2,distractor,1,green,26,2,CR,NaN,offset_to_bckgrd
2,159,4,6,distractor,1,green,26,1,CR,NaN,offset_to_bckgrd
2,159,4,6,target,2,blue,29,2,hit,786.852391560872,offset_to_bckgrd
2,161,4,2,target,2,blue,29,1,hit,950.167306264242,offset_to_bckgrd
2,162,4,2,target,2,blue,29,1,hit,554.703632990519,offset_to_bckgrd
2,162,4,2,distractor,1,green,26,2,FA_proper,872.58718808492,offset_to_bckgrd
2,168,4,5,target,1,green,26,1,hit,510.34320195516,offset_to_bckgrd
2,168,4,5,distractor,2,blue,29,2,FA_proper,374.171924591064,offset_to_bckgrd
2,169,4,3,target,1,green,26,1,hit,583.438189824422,offset_to_bckgrd
2,169,4,3,target,1,green,26,2,hit,439.120864868164,offset_to_bckgrd
2,170,4,5,distractor,2,blue,29,1,FA_proper,557.988166809082,offset_to_bckgrd
2,170,4,5,target,1,green,26,2,hit,588.402303059896,offset_to_bckgrd
2,172,4,2,distractor,1,green,26,1,CR,NaN,offset_to_bckgrd
2,175,4,3,target,1,green,26,1,hit,526.671759287516,offset_to_bckgrd
2,178,4,3,distractor,2,blue,29,1,CR,NaN,offset_to_bckgrd
2,178,4,3,target,1,green,26,2,hit,661.887248357137,offset_to_bckgrd
2,179,4,4,distractor,1,green,26,1,FA_proper,507.016404469808,offset_to_bckgrd
2,183,5,1,distractor,2,blue,29,1,CR,NaN,offset_to_bckgrd
2,184,5,4,distractor,1,green,26,1,CR,NaN,offset_to_bckgrd
2,185,5,1,target,1,green,26,1,hit,524.458026885986,offset_to_bckgrd
2,189,5,1,target,1,green,26,1,hit,737.351401646932,offset_to_bckgrd
2,190,5,6,target,2,blue,29,1,miss,NaN,offset_to_bckgrd
2,190,5,6,distractor,1,green,26,2,FA_proper,766.112534205119,offset_to_bckgrd
2,195,5,5,target,1,green,26,1,hit,608.817640940349,offset_to_bckgrd
2,197,5,2,target,2,blue,29,1,hit,595.724550882976,offset_to_bckgrd
2,200,5,4,target,2,blue,29,1,hit,651.059007644653,offset_to_bckgrd
2,206,5,2,distractor,1,green,26,1,CR,NaN,offset_to_bckgrd
2,207,5,3,target,1,green,26,1,miss,NaN,offset_to_bckgrd
2,207,5,3,target,1,green,26,2,hit,673.252820968628,offset_to_bckgrd
2,214,5,6,target,2,blue,29,1,hit,588.23390007019,offset_to_bckgrd
2,217,5,6,distractor,1,green,26,1,CR,NaN,offset_to_bckgrd
2,221,5,6,distractor,1,green,26,1,CR,NaN,offset_to_bckgrd
2,223,5,4,distractor,1,green,26,1,CR,NaN,offset_to_bckgrd
2,223,5,4,distractor,1,green,26,2,CR,NaN,offset_to_bckgrd
2,226,6,3,distractor,2,blue,29,1,CR,NaN,offset_to_bckgrd
2,228,6,6,distractor,1,green,26,1,CR,NaN,offset_to_bckgrd
2,230,6,3,distractor,2,blue,29,1,FA_proper,524.942286809286,offset_to_bckgrd
2,230,6,3,distractor,2,blue,29,2,FA_proper,483.237663904826,offset_to_bckgrd
2,234,6,4,distractor,1,green,26,1,CR,NaN,offset_to_bckgrd
2,234,6,4,target,2,blue,29,2,hit,769.304943084717,offset_to_bckgrd
2,240,6,1,distractor,2,blue,29,1,CR,NaN,offset_to_bckgrd
2,246,6,2,target,2,blue,29,1,hit,617.48563448588,offset_to_bckgrd
2,258,6,2,distractor,1,green,26,1,CR,NaN,offset_to_bckgrd
2,258,6,2,target,2,blue,29,2,hit,717.493375142416,offset_to_bckgrd
2,267,6,5,distractor,2,blue,29,1,CR,NaN,offset_to_bckgrd
2,270,6,5,target,1,green,26,1,hit,574.77388381958,offset_to_bckgrd
2,270,6,5,distractor,2,blue,29,2,FA_proper,538.168366750082,offset_to_bckgrd
2,271,7,4,target,2,blue,29,1,hit,667.255020141602,offset_to_bckgrd
2,275,7,2,distractor,1,green,26,1,CR,NaN,offset_to_bckgrd
2,275,7,2,distractor,1,green,26,2,FA_proper,426.556142171224,offset_to_bckgrd
2,276,7,5,target,1,green,26,1,hit,606.702041625977,offset_to_bckgrd
2,276,7,5,distractor,2,blue,29,2,FA_proper,485.364596048991,offset_to_bckgrd
2,287,7,4,distractor,1,green,26,1,CR,NaN,offset_to_bckgrd
2,290,7,1,target,1,green,26,1,hit,953.909969329834,offset_to_bckgrd
2,291,7,1,target,1,green,26,1,hit,666.668669382731,offset_to_bckgrd
2,291,7,1,distractor,2,blue,29,2,FA_proper,535.473601023356,offset_to_bckgrd
2,296,7,1,target,1,green,26,1,hit,583.497953414917,offset_to_bckgrd
2,296,7,1,target,1,green,26,2,hit,395.371007919312,offset_to_bckgrd
2,300,7,2,distractor,1,green,26,1,CR,NaN,offset_to_bckgrd
2,302,7,2,distractor,1,green,26,1,CR,NaN,offset_to_bckgrd
2,304,7,4,target,2,blue,29,1,hit,786.165364583333,offset_to_bckgrd
2,306,7,2,target,2,blue,29,1,hit,727.379210789998,offset_to_bckgrd
2,306,7,2,distractor,1,green,26,2,FA_proper,730.782477060954,offset_to_bckgrd
2,310,7,3,target,1,green,26,1,hit,673.985513051351,offset_to_bckgrd
2,310,7,3,target,1,green,26,2,hit,440.680980682373,offset_to_bckgrd
2,312,7,2,distractor,1,green,26,1,CR,NaN,offset_to_bckgrd
2,312,7,2,target,2,blue,29,2,hit,661.869223912557,offset_to_bckgrd
2,317,8,3,target,1,green,26,1,hit,628.3584912618,offset_to_bckgrd
2,318,8,6,target,2,blue,29,1,hit,484.250752131144,offset_to_bckgrd
2,321,8,6,distractor,1,green,26,1,CR,NaN,offset_to_bckgrd
2,324,8,3,target,1,green,26,1,hit,609.130096435547,offset_to_bckgrd
2,324,8,3,target,1,green,26,2,hit,534.810749689738,offset_to_bckgrd
2,326,8,2,target,2,blue,29,1,hit,578.494437535604,offset_to_bckgrd
2,329,8,1,distractor,2,blue,29,1,CR,NaN,offset_to_bckgrd
2,330,8,6,target,2,blue,29,1,hit,572.458124160767,offset_to_bckgrd
2,330,8,6,distractor,1,green,26,2,FA_proper,467.633152008057,offset_to_bckgrd
2,332,8,1,distractor,2,blue,29,1,CR,NaN,offset_to_bckgrd
2,332,8,1,target,1,green,26,2,hit,566.071160634359,offset_to_bckgrd
2,333,8,5,distractor,2,blue,29,1,CR,NaN,offset_to_bckgrd
2,334,8,3,distractor,2,blue,29,1,CR,NaN,offset_to_bckgrd
2,342,8,5,distractor,2,blue,29,1,CR,NaN,offset_to_bckgrd
2,343,8,5,distractor,2,blue,29,1,CR,NaN,offset_to_bckgrd
2,343,8,5,target,1,green,26,2,hit,642.083152135213,offset_to_bckgrd
2,345,8,2,target,2,blue,29,1,hit,615.853706995646,offset_to_bckgrd
2,345,8,2,distractor,1,green,26,2,CR,NaN,offset_to_bckgrd
2,348,8,4,target,2,blue,29,1,hit,622.675577799479,offset_to_bckgrd
2,348,8,4,distractor,1,green,26,2,FA_proper,532.78071085612,offset_to_bckgrd
2,352,8,1,distractor,2,blue,29,1,CR,NaN,offset_to_bckgrd
2,357,8,5,target,1,green,26,1,hit,772.409232457479,offset_to_bckgrd
2,357,8,5,distractor,2,blue,29,2,FA_proper,491.069984436035,offset_to_bckgrd
2,358,8,4,target,2,blue,29,1,miss,NaN,offset_to_bckgrd
2,361,9,4,distractor,1,green,26,1,CR,NaN,offset_to_bckgrd
2,362,9,5,target,1,green,26,1,hit,553.467575709025,offset_to_bckgrd
2,366,9,6,distractor,1,green,26,1,CR,NaN,offset_to_bckgrd
2,370,9,5,target,1,green,26,1,hit,748.627630869548,offset_to_bckgrd
2,372,9,3,distractor,2,blue,29,1,CR,NaN,offset_to_bckgrd
2,373,9,3,distractor,2,blue,29,1,CR,NaN,offset_to_bckgrd
2,373,9,3,target,1,green,26,2,hit,791.44647916158,offset_to_bckgrd
2,375,9,1,target,1,green,26,1,hit,595.452435811361,offset_to_bckgrd
2,377,9,6,target,2,blue,29,1,hit,614.30279413859,offset_to_bckgrd
2,377,9,6,distractor,1,green,26,2,CR,NaN,offset_to_bckgrd
2,378,9,3,target,1,green,26,1,hit,664.867512385051,offset_to_bckgrd
2,379,9,3,distractor,2,blue,29,1,CR,NaN,offset_to_bckgrd
2,379,9,3,target,1,green,26,2,hit,548.995288213094,offset_to_bckgrd
2,380,9,4,target,2,blue,29,1,hit,595.692650477091,offset_to_bckgrd
2,381,9,1,distractor,2,blue,29,1,FA_proper,844.612566630046,offset_to_bckgrd
2,381,9,1,distractor,2,blue,29,2,FA_proper,524.068021774292,offset_to_bckgrd
2,385,9,6,target,2,blue,29,1,hit,710.782957077026,offset_to_bckgrd
2,385,9,6,target,2,blue,29,2,hit,365.453592936197,offset_to_bckgrd
2,387,9,4,target,2,blue,29,1,hit,570.26031812032,offset_to_bckgrd
2,391,9,3,distractor,2,blue,29,1,FA_proper,508.151276906332,offset_to_bckgrd
2,391,9,3,target,1,green,26,2,hit,366.484562555949,offset_to_bckgrd
2,393,9,1,target,1,green,26,1,hit,598.202578226725,offset_to_bckgrd
2,394,9,6,distractor,1,green,26,1,CR,NaN,offset_to_bckgrd
2,394,9,6,distractor,1,green,26,2,CR,NaN,offset_to_bckgrd
2,397,9,5,distractor,2,blue,29,1,FA_proper,627.713505427042,offset_to_bckgrd
2,399,9,6,target,2,blue,29,1,hit,656.287368138631,offset_to_bckgrd
2,399,9,6,target,2,blue,29,2,hit,482.469304402669,offset_to_bckgrd
2,401,9,2,distractor,1,green,26,1,CR,NaN,offset_to_bckgrd
2,401,9,2,target,2,blue,29,2,hit,838.620217641194,offset_to_bckgrd
2,402,9,4,target,2,blue,29,1,hit,584.054088592529,offset_to_bckgrd
2,402,9,4,distractor,1,green,26,2,FA_proper,558.233022689819,offset_to_bckgrd
2,404,9,2,target,2,blue,29,1,hit,547.157637278239,offset_to_bckgrd
2,404,9,2,target,2,blue,29,2,hit,459.000285466512,offset_to_bckgrd
2,405,9,4,distractor,1,green,26,1,CR,NaN,offset_to_bckgrd
2,408,10,3,target,1,green,26,1,hit,474.999459584554,offset_to_bckgrd
2,408,10,3,distractor,2,blue,29,2,CR,NaN,offset_to_bckgrd
2,412,10,2,target,2,blue,29,1,hit,723.606236775716,offset_to_bckgrd
2,413,10,6,distractor,1,green,26,1,CR,NaN,offset_to_bckgrd
2,413,10,6,target,2,blue,29,2,hit,514.814949035644,offset_to_bckgrd
2,415,10,5,distractor,2,blue,29,1,CR,NaN,offset_to_bckgrd
2,415,10,5,target,1,green,26,2,miss,NaN,offset_to_bckgrd
2,416,10,1,distractor,2,blue,29,1,CR,NaN,offset_to_bckgrd
2,416,10,1,target,1,green,26,2,hit,566.201114654541,offset_to_bckgrd
2,417,10,2,distractor,1,green,26,1,CR,NaN,offset_to_bckgrd
2,418,10,3,target,1,green,26,1,hit,621.631638209025,offset_to_bckgrd
2,418,10,3,distractor,2,blue,29,2,CR,NaN,offset_to_bckgrd
2,420,10,6,target,2,blue,29,1,miss,NaN,offset_to_bckgrd
2,420,10,6,distractor,1,green,26,2,CR,NaN,offset_to_bckgrd
2,421,10,5,target,1,green,26,1,hit,507.856210072835,offset_to_bckgrd
2,421,10,5,target,1,green,26,2,hit,452.701314290365,offset_to_bckgrd
2,428,10,2,target,2,blue,29,1,hit,576.03980700175,offset_to_bckgrd
2,429,10,6,target,2,blue,29,1,hit,525.63796043396,offset_to_bckgrd
2,429,10,6,target,2,blue,29,2,hit,387.628078460693,offset_to_bckgrd
2,430,10,1,distractor,2,blue,29,1,CR,NaN,offset_to_bckgrd
2,430,10,1,distractor,2,blue,29,2,CR,NaN,offset_to_bckgrd
2,445,10,6,target,2,blue,29,1,miss,NaN,offset_to_bckgrd
2,445,10,6,distractor,1,green,26,2,CR,NaN,offset_to_bckgrd
2,448,10,2,target,2,blue,29,1,hit,698.035097122192,offset_to_bckgrd
2,452,11,4,target,2,blue,29,1,hit,492.844200134277,offset_to_bckgrd
2,453,11,3,distractor,2,blue,29,1,CR,NaN,offset_to_bckgrd
2,453,11,3,target,1,green,26,2,hit,539.238389333089,offset_to_bckgrd
2,459,11,2,target,2,blue,29,1,hit,460.958909988403,offset_to_bckgrd
2,459,11,2,target,2,blue,29,2,hit,386.044931411743,offset_to_bckgrd
2,464,11,2,target,2,blue,29,1,hit,580.298089981079,offset_to_bckgrd
2,471,11,5,distractor,2,blue,29,1,CR,NaN,offset_to_bckgrd
2,475,11,4,distractor,1,green,26,1,FA_proper,642.477496465047,offset_to_bckgrd
2,477,11,2,distractor,1,green,26,1,CR,NaN,offset_to_bckgrd
2,478,11,1,distractor,2,blue,29,1,FA_proper,655.175526936849,offset_to_bckgrd
2,481,11,1,distractor,2,blue,29,1,CR,NaN,offset_to_bckgrd
2,482,11,6,target,2,blue,29,1,hit,535.782225926717,offset_to_bckgrd
2,485,11,2,distractor,1,green,26,1,CR,NaN,offset_to_bckgrd
2,485,11,2,target,2,blue,29,2,hit,549.338595072428,offset_to_bckgrd
2,487,11,1,distractor,2,blue,29,1,CR,NaN,offset_to_bckgrd
2,494,11,1,distractor,2,blue,29,1,CR,NaN,offset_to_bckgrd
2,499,12,3,distractor,2,blue,29,1,CR,NaN,offset_to_bckgrd
2,499,12,3,distractor,2,blue,29,2,FA_proper,533.068895339966,offset_to_bckgrd
2,503,12,3,target,1,green,26,1,hit,563.611714045207,offset_to_bckgrd
2,504,12,5,target,1,green,26,1,hit,672.167380650838,offset_to_bckgrd
2,506,12,4,distractor,1,green,26,1,CR,NaN,offset_to_bckgrd
2,506,12,4,target,2,blue,29,2,hit,714.774306615194,offset_to_bckgrd
2,512,12,2,distractor,1,green,26,1,CR,NaN,offset_to_bckgrd
2,513,12,5,distractor,2,blue,29,1,CR,NaN,offset_to_bckgrd
2,521,12,2,target,2,blue,29,1,hit,486.49975458781,offset_to_bckgrd
2,521,12,2,target,2,blue,29,2,hit,438.865041732788,offset_to_bckgrd
2,522,12,2,target,2,blue,29,1,hit,549.105072021484,offset_to_bckgrd
2,523,12,3,target,1,green,26,1,hit,544.389422734579,offset_to_bckgrd
2,529,12,5,target,1,green,26,1,hit,544.027773539225,offset_to_bckgrd
2,532,12,2,target,2,blue,29,1,hit,632.859579722086,offset_to_bckgrd
2,534,12,6,distractor,1,green,26,1,CR,NaN,offset_to_bckgrd
2,534,12,6,distractor,1,green,26,2,CR,NaN,offset_to_bckgrd
2,540,12,5,target,1,green,26,1,hit,747.902011871338,offset_to_bckgrd
2,541,13,1,target,1,green,26,1,hit,576.277605692545,offset_to_bckgrd
2,541,13,1,target,1,green,26,2,hit,470.61063448588,offset_to_bckgrd
2,550,13,5,distractor,2,blue,29,1,CR,NaN,offset_to_bckgrd
2,553,13,6,distractor,1,green,26,1,CR,NaN,offset_to_bckgrd
2,553,13,6,target,2,blue,29,2,hit,648.714844385783,offset_to_bckgrd
2,555,13,6,target,2,blue,29,1,hit,535.631163914999,offset_to_bckgrd
2,555,13,6,target,2,blue,29,2,hit,445.675261815389,offset_to_bckgrd
2,559,13,3,target,1,green,26,1,hit,533.596674601237,offset_to_bckgrd
2,559,13,3,distractor,2,blue,29,2,FA_proper,700.726715723674,offset_to_bckgrd
2,560,13,6,distractor,1,green,26,1,CR,NaN,offset_to_bckgrd
2,561,13,3,distractor,2,blue,29,1,CR,NaN,offset_to_bckgrd
2,562,13,5,target,1,green,26,1,hit,500.728448232015,offset_to_bckgrd
2,563,13,4,distractor,1,green,26,1,CR,NaN,offset_to_bckgrd
2,563,13,4,distractor,1,green,26,2,CR,NaN,offset_to_bckgrd
2,567,13,5,distractor,2,blue,29,1,CR,NaN,offset_to_bckgrd
2,567,13,5,target,1,green,26,2,hit,503.086582819621,offset_to_bckgrd
2,568,13,1,target,1,green,26,1,hit,714.85431989034,offset_to_bckgrd
2,571,13,3,target,1,green,26,1,hit,488.133859634399,offset_to_bckgrd
2,577,13,5,target,1,green,26,1,hit,493.662929534912,offset_to_bckgrd
2,578,13,3,distractor,2,blue,29,1,FA_proper,563.161182403564,offset_to_bckgrd
2,578,13,3,distractor,2,blue,29,2,CR,NaN,offset_to_bckgrd
2,584,13,3,target,1,green,26,1,hit,597.858730951945,offset_to_bckgrd
2,585,13,1,target,1,green,26,1,hit,494.506661097209,offset_to_bckgrd
2,587,14,5,distractor,2,blue,29,1,CR,NaN,offset_to_bckgrd
2,590,14,4,target,2,blue,29,1,hit,683.403650919596,offset_to_bckgrd
2,590,14,4,target,2,blue,29,2,hit,539.074818293253,offset_to_bckgrd
2,594,14,4,distractor,1,green,26,1,FA_proper,560.800393422445,offset_to_bckgrd
2,594,14,4,distractor,1,green,26,2,CR,NaN,offset_to_bckgrd
2,595,14,4,target,2,blue,29,1,hit,464.741086959839,offset_to_bckgrd
2,595,14,4,distractor,1,green,26,2,FA_proper,456.067355473836,offset_to_bckgrd
2,597,14,3,distractor,2,blue,29,1,CR,NaN,offset_to_bckgrd
2,597,14,3,distractor,2,blue,29,2,CR,NaN,offset_to_bckgrd
2,603,14,4,target,2,blue,29,1,hit,520.967690149943,offset_to_bckgrd
2,603,14,4,distractor,1,green,26,2,CR,NaN,offset_to_bckgrd
2,609,14,6,distractor,1,green,26,1,FA_proper,651.616414388021,offset_to_bckgrd
2,609,14,6,target,2,blue,29,2,hit,794.435977935791,offset_to_bckgrd
2,612,14,4,target,2,blue,29,1,hit,595.993900299072,offset_to_bckgrd
2,612,14,4,target,2,blue,29,2,hit,232.599751154582,offset_to_bckgrd
2,613,14,5,distractor,2,blue,29,1,CR,NaN,offset_to_bckgrd
2,613,14,5,distractor,2,blue,29,2,CR,NaN,offset_to_bckgrd
2,615,14,6,distractor,1,green,26,1,FA_proper,481.056658426921,offset_to_bckgrd
2,616,14,6,target,2,blue,29,1,hit,534.736061096191,offset_to_bckgrd
2,618,14,1,target,1,green,26,1,hit,563.468297322591,offset_to_bckgrd
2,618,14,1,distractor,2,blue,29,2,CR,NaN,offset_to_bckgrd
2,628,14,3,target,1,green,26,1,hit,628.219254811605,offset_to_bckgrd
2,628,14,3,distractor,2,blue,29,2,CR,NaN,offset_to_bckgrd
2,629,14,4,target,2,blue,29,1,hit,495.74499130249,offset_to_bckgrd
2,629,14,4,target,2,blue,29,2,hit,371.745014190674,offset_to_bckgrd
2,631,15,4,distractor,1,green,26,1,CR,NaN,offset_to_bckgrd
2,635,15,2,target,2,blue,29,1,hit,587.689336140951,offset_to_bckgrd
2,635,15,2,distractor,1,green,26,2,FA_proper,352.3521900177,offset_to_bckgrd
2,637,15,5,distractor,2,blue,29,1,FA_proper,935.884221394857,offset_to_bckgrd
2,637,15,5,distractor,2,blue,29,2,CR,NaN,offset_to_bckgrd
2,642,15,6,target,2,blue,29,1,hit,563.304265340169,offset_to_bckgrd
2,644,15,4,distractor,1,green,26,1,CR,NaN,offset_to_bckgrd
2,644,15,4,distractor,1,green,26,2,CR,NaN,offset_to_bckgrd
2,645,15,6,target,2,blue,29,1,hit,645.153776804606,offset_to_bckgrd
2,647,15,6,distractor,1,green,26,1,CR,NaN,offset_to_bckgrd
2,652,15,5,target,1,green,26,1,hit,585.751597086588,offset_to_bckgrd
2,652,15,5,distractor,2,blue,29,2,CR,NaN,offset_to_bckgrd
2,653,15,1,distractor,2,blue,29,1,CR,NaN,offset_to_bckgrd
2,657,15,5,distractor,2,blue,29,1,CR,NaN,offset_to_bckgrd
2,657,15,5,distractor,2,blue,29,2,CR,NaN,offset_to_bckgrd
2,659,15,5,distractor,2,blue,29,1,CR,NaN,offset_to_bckgrd
2,661,15,2,distractor,1,green,26,1,CR,NaN,offset_to_bckgrd
2,661,15,2,target,2,blue,29,2,hit,810.842990875244,offset_to_bckgrd
2,662,15,6,distractor,1,green,26,1,CR,NaN,offset_to_bckgrd
2,662,15,6,distractor,1,green,26,2,CR,NaN,offset_to_bckgrd
2,664,15,1,target,1,green,26,1,hit,588.838815689087,offset_to_bckgrd
2,668,15,6,distractor,1,green,26,1,CR,NaN,offset_to_bckgrd
2,669,15,1,distractor,2,blue,29,1,FA_proper,839.711904525757,offset_to_bckgrd
2,676,16,1,target,1,green,26,1,hit,675.626627604167,offset_to_bckgrd
2,680,16,4,distractor,1,green,26,1,CR,NaN,offset_to_bckgrd
2,684,16,1,distractor,2,blue,29,1,CR,NaN,offset_to_bckgrd
2,687,16,2,target,2,blue,29,1,hit,962.889051437378,offset_to_bckgrd
2,687,16,2,target,2,blue,29,2,hit,576.57372156779,offset_to_bckgrd
2,689,16,1,target,1,green,26,1,hit,673.993873596191,offset_to_bckgrd
2,689,16,1,distractor,2,blue,29,2,CR,NaN,offset_to_bckgrd
2,695,16,2,target,2,blue,29,1,miss,NaN,offset_to_bckgrd
2,695,16,2,target,2,blue,29,2,miss,NaN,offset_to_bckgrd
2,697,16,5,target,1,green,26,1,hit,566.262690226237,offset_to_bckgrd
2,697,16,5,target,1,green,26,2,hit,471.834309895834,offset_to_bckgrd
2,698,16,6,distractor,1,green,26,1,CR,NaN,offset_to_bckgrd
2,698,16,6,distractor,1,green,26,2,CR,NaN,offset_to_bckgrd
2,700,16,6,target,2,blue,29,1,miss,NaN,offset_to_bckgrd
2,707,16,3,distractor,2,blue,29,1,CR,NaN,offset_to_bckgrd
2,708,16,2,target,2,blue,29,1,hit,534.809478123983,offset_to_bckgrd
2,708,16,2,target,2,blue,29,2,hit,445.136706034343,offset_to_bckgrd
2,718,16,3,target,1,green,26,1,hit,666.071112950643,offset_to_bckgrd
2,723,17,1,distractor,2,blue,29,1,CR,NaN,offset_to_bckgrd
2,724,17,3,distractor,2,blue,29,1,FA_proper,577.568372090657,offset_to_bckgrd
2,725,17,4,target,2,blue,29,1,hit,700.283447901408,offset_to_bckgrd
2,726,17,3,distractor,2,blue,29,1,CR,NaN,offset_to_bckgrd
2,726,17,3,distractor,2,blue,29,2,CR,NaN,offset_to_bckgrd
2,729,17,6,distractor,1,green,26,1,CR,NaN,offset_to_bckgrd
2,729,17,6,distractor,1,green,26,2,CR,NaN,offset_to_bckgrd
2,734,17,6,target,2,blue,29,1,hit,623.993062973023,offset_to_bckgrd
2,734,17,6,target,2,blue,29,2,hit,366.868925094604,offset_to_bckgrd
2,749,17,3,distractor,2,blue,29,1,FA_proper,980.292399724325,offset_to_bckgrd
2,750,17,5,target,1,green,26,1,hit,565.109427769979,offset_to_bckgrd
2,750,17,5,target,1,green,26,2,hit,341.85619354248,offset_to_bckgrd
2,751,17,6,target,2,blue,29,1,hit,548.849550882976,offset_to_bckgrd
2,753,17,4,target,2,blue,29,1,hit,598.945951461792,offset_to_bckgrd
2,753,17,4,target,2,blue,29,2,hit,429.506429036458,offset_to_bckgrd
2,754,17,3,target,1,green,26,1,hit,484.088039398193,offset_to_bckgrd
2,757,17,4,distractor,1,green,26,1,CR,NaN,offset_to_bckgrd
2,757,17,4,target,2,blue,29,2,hit,472.189998626709,offset_to_bckgrd
2,759,17,5,target,1,green,26,1,hit,522.620836893718,offset_to_bckgrd
2,761,17,1,target,1,green,26,1,hit,453.531567255656,offset_to_bckgrd
2,761,17,1,target,1,green,26,2,hit,413.569513956706,offset_to_bckgrd
2,763,17,2,target,2,blue,29,1,hit,442.736275990804,offset_to_bckgrd
2,765,17,6,distractor,1,green,26,1,FA_proper,462.130244572958,offset_to_bckgrd
2,765,17,6,target,2,blue,29,2,hit,492.787933349609,offset_to_bckgrd
2,767,18,1,target,1,green,26,1,hit,522.156047821045,offset_to_bckgrd
2,771,18,5,distractor,2,blue,29,1,FA_proper,522.532256444295,offset_to_bckgrd
2,771,18,5,target,1,green,26,2,hit,514.87676302592,offset_to_bckgrd
2,772,18,1,distractor,2,blue,29,1,CR,NaN,offset_to_bckgrd
2,772,18,1,target,1,green,26,2,hit,415.272315343221,offset_to_bckgrd
2,775,18,1,target,1,green,26,1,hit,600.796985626221,offset_to_bckgrd
2,779,18,2,distractor,1,green,26,1,CR,NaN,offset_to_bckgrd
2,784,18,3,distractor,2,blue,29,1,CR,NaN,offset_to_bckgrd
2,785,18,6,target,2,blue,29,1,hit,975.667365392049,offset_to_bckgrd
2,785,18,6,distractor,1,green,26,2,CR,NaN,offset_to_bckgrd
2,786,18,5,target,1,green,26,1,miss,NaN,offset_to_bckgrd
2,786,18,5,distractor,2,blue,29,2,CR,NaN,offset_to_bckgrd
2,791,18,1,target,1,green,26,1,hit,536.914459864299,offset_to_bckgrd
2,791,18,1,distractor,2,blue,29,2,CR,NaN,offset_to_bckgrd
2,792,18,2,distractor,1,green,26,1,CR,NaN,offset_to_bckgrd
2,794,18,4,distractor,1,green,26,1,CR,NaN,offset_to_bckgrd
2,794,18,4,target,2,blue,29,2,hit,626.125955581665,offset_to_bckgrd
2,795,18,2,distractor,1,green,26,1,CR,NaN,offset_to_bckgrd
2,795,18,2,target,2,blue,29,2,hit,603.720219930013,offset_to_bckgrd
2,796,18,5,target,1,green,26,1,hit,693.896961212158,offset_to_bckgrd
2,800,18,2,distractor,1,green,26,1,CR,NaN,offset_to_bckgrd
2,804,18,3,distractor,2,blue,29,1,CR,NaN,offset_to_bckgrd
2,806,18,4,distractor,1,green,26,1,CR,NaN,offset_to_bckgrd
2,808,18,1,distractor,2,blue,29,1,CR,NaN,offset_to_bckgrd
2,808,18,1,target,1,green,26,2,hit,579.015556971232,offset_to_bckgrd
2,814,19,2,distractor,1,green,26,1,CR,NaN,offset_to_bckgrd
2,814,19,2,distractor,1,green,26,2,CR,NaN,offset_to_bckgrd
2,819,19,2,distractor,1,green,26,1,CR,NaN,offset_to_bckgrd
2,820,19,3,distractor,2,blue,29,1,CR,NaN,offset_to_bckgrd
2,822,19,1,target,1,green,26,1,hit,537.894280751546,offset_to_bckgrd
2,822,19,1,target,1,green,26,2,hit,530.868228276571,offset_to_bckgrd
2,823,19,1,target,1,green,26,1,hit,589.755837122599,offset_to_bckgrd
2,823,19,1,distractor,2,blue,29,2,FA_proper,375.477345784505,offset_to_bckgrd
2,826,19,3,distractor,2,blue,29,1,FA_proper,973.790613810222,offset_to_bckgrd
2,826,19,3,distractor,2,blue,29,2,FA_proper,564.108848571777,offset_to_bckgrd
2,832,19,6,distractor,1,green,26,1,CR,NaN,offset_to_bckgrd
2,834,19,5,target,1,green,26,1,hit,464.713048934937,offset_to_bckgrd
2,834,19,5,target,1,green,26,2,hit,407.892942428589,offset_to_bckgrd
2,836,19,1,target,1,green,26,1,hit,592.928886413574,offset_to_bckgrd
2,836,19,1,distractor,2,blue,29,2,FA_proper,455.369265874227,offset_to_bckgrd
2,846,19,4,distractor,1,green,26,1,CR,NaN,offset_to_bckgrd
2,850,19,6,target,2,blue,29,1,hit,649.963315327962,offset_to_bckgrd
2,853,19,2,target,2,blue,29,1,hit,554.658349355062,offset_to_bckgrd
2,855,19,6,distractor,1,green,26,1,CR,NaN,offset_to_bckgrd
2,860,20,5,target,1,green,26,1,hit,597.275972366333,offset_to_bckgrd
2,860,20,5,distractor,2,blue,29,2,CR,NaN,offset_to_bckgrd
2,861,20,1,distractor,2,blue,29,1,CR,NaN,offset_to_bckgrd
2,861,20,1,target,1,green,26,2,hit,572.332636515299,offset_to_bckgrd
2,865,20,6,target,2,blue,29,1,hit,565.633742014567,offset_to_bckgrd
2,865,20,6,distractor,1,green,26,2,FA_proper,440.833902359009,offset_to_bckgrd
2,867,20,3,target,1,green,26,1,hit,506.628672281901,offset_to_bckgrd
2,867,20,3,target,1,green,26,2,hit,400.284274419149,offset_to_bckgrd
2,870,20,4,target,2,blue,29,1,hit,674.103609720866,offset_to_bckgrd
2,870,20,4,distractor,1,green,26,2,CR,NaN,offset_to_bckgrd
2,874,20,2,target,2,blue,29,1,hit,600.413799285889,offset_to_bckgrd
2,874,20,2,distractor,1,green,26,2,CR,NaN,offset_to_bckgrd
2,878,20,6,distractor,1,green,26,1,FA_proper,764.826695124308,offset_to_bckgrd
2,878,20,6,target,2,blue,29,2,miss,NaN,offset_to_bckgrd
2,879,20,3,distractor,2,blue,29,1,CR,NaN,offset_to_bckgrd
2,879,20,3,target,1,green,26,2,hit,476.427348454793,offset_to_bckgrd
2,883,20,5,distractor,2,blue,29,1,CR,NaN,offset_to_bckgrd
2,883,20,5,distractor,2,blue,29,2,CR,NaN,offset_to_bckgrd
2,887,20,4,target,2,blue,29,1,hit,540.047709147135,offset_to_bckgrd
2,889,20,5,target,1,green,26,1,hit,648.458814620972,offset_to_bckgrd
2,889,20,5,target,1,green,26,2,hit,416.241566340129,offset_to_bckgrd
2,890,20,4,target,2,blue,29,1,hit,564.56020673116,offset_to_bckgrd
2,897,20,1,target,1,green,26,1,hit,598.03409576416,offset_to_bckgrd
2,900,20,3,distractor,2,blue,29,1,CR,NaN,offset_to_bckgrd
3,7,1,3,target,1,redish,29,1,hit,433.200518290202,offset_to_bckgrd
3,8,1,1,distractor,2,green,26,1,FA_proper,509.625911712646,offset_to_bckgrd
3,11,1,2,distractor,1,redish,29,1,FA_proper,838.285064697266,offset_to_bckgrd
3,11,1,2,target,2,green,26,2,hit,945.245711008708,offset_to_bckgrd
3,17,1,4,target,2,green,26,1,hit,503.525527318318,offset_to_bckgrd
3,17,1,4,distractor,1,redish,29,2,CR,NaN,offset_to_bckgrd
3,20,1,1,distractor,2,green,26,1,FA_proper,418.870337804159,offset_to_bckgrd
3,28,1,6,target,2,green,26,1,hit,671.979904174805,offset_to_bckgrd
3,31,1,6,distractor,1,redish,29,1,FA_proper,592.935307820638,offset_to_bckgrd
3,39,1,6,target,2,green,26,1,hit,500.525633494059,offset_to_bckgrd
3,39,1,6,target,2,green,26,2,hit,395.048459370931,offset_to_bckgrd
3,41,1,3,target,1,redish,29,1,hit,484.750843048096,offset_to_bckgrd
3,48,2,5,target,1,redish,29,1,hit,568.732341130575,offset_to_bckgrd
3,51,2,5,target,1,redish,29,1,hit,834.446271260579,offset_to_bckgrd
3,55,2,5,distractor,2,green,26,1,CR,NaN,offset_to_bckgrd
3,56,2,4,distractor,1,redish,29,1,FA_proper,691.330273946126,offset_to_bckgrd
3,56,2,4,target,2,green,26,2,hit,428.549639383952,offset_to_bckgrd
3,60,2,6,distractor,1,redish,29,1,CR,NaN,offset_to_bckgrd
3,60,2,6,target,2,green,26,2,hit,564.771890640259,offset_to_bckgrd
3,61,2,4,distractor,1,redish,29,1,CR,NaN,offset_to_bckgrd
3,62,2,2,target,2,green,26,1,hit,509.108606974284,offset_to_bckgrd
3,64,2,1,target,1,redish,29,1,hit,581.379350026448,offset_to_bckgrd
3,67,2,2,target,2,green,26,1,hit,535.16902923584,offset_to_bckgrd
3,67,2,2,target,2,green,26,2,hit,492.179648081461,offset_to_bckgrd
3,69,2,5,target,1,redish,29,1,hit,515.002330144246,offset_to_bckgrd
3,69,2,5,distractor,2,green,26,2,CR,NaN,offset_to_bckgrd
3,72,2,4,distractor,1,redish,29,1,FA_proper,538.710657755534,offset_to_bckgrd
3,73,2,5,target,1,redish,29,1,hit,619.051567713419,offset_to_bckgrd
3,73,2,5,distractor,2,green,26,2,CR,NaN,offset_to_bckgrd
3,74,2,3,target,1,redish,29,1,hit,503.528022766113,offset_to_bckgrd
3,74,2,3,target,1,redish,29,2,hit,474.19187227885,offset_to_bckgrd
3,75,2,1,distractor,2,green,26,1,CR,NaN,offset_to_bckgrd
3,75,2,1,distractor,2,green,26,2,CR,NaN,offset_to_bckgrd
3,77,2,4,distractor,1,redish,29,1,FA_proper,609.68345006307,offset_to_bckgrd
3,77,2,4,target,2,green,26,2,hit,485.146776835124,offset_to_bckgrd
3,78,2,1,target,1,redish,29,1,hit,493.606487909953,offset_to_bckgrd
3,79,2,2,distractor,1,redish,29,1,CR,NaN,offset_to_bckgrd
3,80,2,5,distractor,2,green,26,1,CR,NaN,offset_to_bckgrd
3,80,2,5,distractor,2,green,26,2,CR,NaN,offset_to_bckgrd
3,81,2,3,distractor,2,green,26,1,CR,NaN,offset_to_bckgrd
3,81,2,3,target,1,redish,29,2,hit,777.295605341593,offset_to_bckgrd
3,82,2,3,target,1,redish,29,1,hit,439.49867884318,offset_to_bckgrd
3,87,2,6,target,2,green,26,1,hit,535.370429356893,offset_to_bckgrd
3,87,2,6,target,2,green,26,2,hit,428.12294960022,offset_to_bckgrd
3,90,2,6,distractor,1,redish,29,1,FA_proper,483.302974700928,offset_to_bckgrd
3,90,2,6,distractor,1,redish,29,2,CR,NaN,offset_to_bckgrd
3,91,3,5,target,1,redish,29,1,hit,513.132095336914,offset_to_bckgrd
3,97,3,2,target,2,green,26,1,hit,577.586301167806,offset_to_bckgrd
3,103,3,1,target,1,redish,29,1,hit,479.184691111247,offset_to_bckgrd
3,105,3,2,distractor,1,redish,29,1,FA_proper,421.174001693726,offset_to_bckgrd
3,109,3,5,target,1,redish,29,1,hit,520.440006256104,offset_to_bckgrd
3,109,3,5,target,1,redish,29,2,hit,407.117668787638,offset_to_bckgrd
3,110,3,5,distractor,2,green,26,1,FA_proper,492.351229985555,offset_to_bckgrd
3,110,3,5,distractor,2,green,26,2,CR,NaN,offset_to_bckgrd
3,113,3,1,target,1,redish,29,1,hit,557.401529947917,offset_to_bckgrd
3,113,3,1,target,1,redish,29,2,miss,NaN,offset_to_bckgrd
3,116,3,4,target,2,green,26,1,hit,552.784744898478,offset_to_bckgrd
3,117,3,3,distractor,2,green,26,1,CR,NaN,offset_to_bckgrd
3,121,3,1,distractor,2,green,26,1,CR,NaN,offset_to_bckgrd
3,121,3,1,distractor,2,green,26,2,CR,NaN,offset_to_bckgrd
3,123,3,5,distractor,2,green,26,1,CR,NaN,offset_to_bckgrd
3,126,3,4,distractor,1,redish,29,1,FA_proper,655.647532145182,offset_to_bckgrd
3,126,3,4,distractor,1,redish,29,2,FA_proper,642.359336217244,offset_to_bckgrd
3,127,3,3,target,1,redish,29,1,hit,501.190042495728,offset_to_bckgrd
3,128,3,4,target,2,green,26,1,hit,685.082101821899,offset_to_bckgrd
3,128,3,4,distractor,1,redish,29,2,CR,NaN,offset_to_bckgrd
3,132,3,5,distractor,2,green,26,1,CR,NaN,offset_to_bckgrd
3,132,3,5,distractor,2,green,26,2,CR,NaN,offset_to_bckgrd
3,133,3,4,distractor,1,redish,29,1,CR,NaN,offset_to_bckgrd
3,137,4,1,distractor,2,green,26,1,CR,NaN,offset_to_bckgrd
3,137,4,1,target,1,redish,29,2,hit,576.423565546672,offset_to_bckgrd
3,139,4,4,target,2,green,26,1,hit,502.601782480876,offset_to_bckgrd
3,141,4,5,distractor,2,green,26,1,CR,NaN,offset_to_bckgrd
3,143,4,1,target,1,redish,29,1,hit,548.05588722229,offset_to_bckgrd
3,144,4,1,distractor,2,green,26,1,CR,NaN,offset_to_bckgrd
3,145,4,3,target,1,redish,29,1,hit,487.228282292684,offset_to_bckgrd
3,148,4,6,target,2,green,26,1,hit,450.302712122599,offset_to_bckgrd
3,148,4,6,target,2,green,26,2,hit,401.966508229574,offset_to_bckgrd
3,151,4,3,target,1,redish,29,1,hit,572.226095199585,offset_to_bckgrd
3,151,4,3,target,1,redish,29,2,hit,433.26096534729,offset_to_bckgrd
3,154,4,6,distractor,1,redish,29,1,CR,NaN,offset_to_bckgrd
3,154,4,6,target,2,green,26,2,hit,521.330293019613,offset_to_bckgrd
3,155,4,4,target,2,green,26,1,hit,522.589651743571,offset_to_bckgrd
3,155,4,4,target,2,green,26,2,hit,506.212854385376,offset_to_bckgrd
3,159,4,2,target,2,green,26,1,hit,546.962976455688,offset_to_bckgrd
3,162,4,2,target,2,green,26,1,hit,442.317692438762,offset_to_bckgrd
3,162,4,2,target,2,green,26,2,hit,341.440836588542,offset_to_bckgrd
3,164,4,4,target,2,green,26,1,hit,403.393936157227,offset_to_bckgrd
3,164,4,4,target,2,green,26,2,hit,813.22275797526,offset_to_bckgrd
3,169,4,4,target,2,green,26,1,hit,468.188778559367,offset_to_bckgrd
3,169,4,4,target,2,green,26,2,miss,NaN,offset_to_bckgrd
3,174,4,5,distractor,2,green,26,1,CR,NaN,offset_to_bckgrd
3,180,4,3,distractor,2,green,26,1,CR,NaN,offset_to_bckgrd
3,180,4,3,target,1,redish,29,2,hit,496.64192199707,offset_to_bckgrd
3,182,5,3,target,1,redish,29,1,hit,443.818585077921,offset_to_bckgrd
3,182,5,3,distractor,2,green,26,2,CR,NaN,offset_to_bckgrd
3,186,5,3,distractor,2,green,26,1,CR,NaN,offset_to_bckgrd
3,186,5,3,target,1,redish,29,2,hit,495.867156982422,offset_to_bckgrd
3,188,5,4,target,2,green,26,1,hit,501.991033554077,offset_to_bckgrd
3,188,5,4,target,2,green,26,2,miss,NaN,offset_to_bckgrd
3,190,5,5,target,1,redish,29,1,hit,583.347352345784,offset_to_bckgrd
3,199,5,6,target,2,green,26,1,hit,384.107335408529,offset_to_bckgrd
3,199,5,6,distractor,1,redish,29,2,CR,NaN,offset_to_bckgrd
3,202,5,6,distractor,1,redish,29,1,CR,NaN,offset_to_bckgrd
3,206,5,2,target,2,green,26,1,hit,380.077028274536,offset_to_bckgrd
3,206,5,2,target,2,green,26,2,hit,435.674635569255,offset_to_bckgrd
3,209,5,2,distractor,1,redish,29,1,FA_proper,469.490464528402,offset_to_bckgrd
3,209,5,2,target,2,green,26,2,hit,485.481437047323,offset_to_bckgrd
3,211,5,5,distractor,2,green,26,1,CR,NaN,offset_to_bckgrd
3,213,5,5,distractor,2,green,26,1,CR,NaN,offset_to_bckgrd
3,219,5,5,distractor,2,green,26,1,FA_proper,403.818035125732,offset_to_bckgrd
3,219,5,5,target,1,redish,29,2,hit,481.223376592,offset_to_bckgrd
3,221,5,1,distractor,2,green,26,1,CR,NaN,offset_to_bckgrd
3,226,6,6,target,2,green,26,1,hit,445.426813761393,offset_to_bckgrd
3,226,6,6,distractor,1,redish,29,2,CR,NaN,offset_to_bckgrd
3,228,6,1,target,1,redish,29,1,hit,427.37029393514,offset_to_bckgrd
3,232,6,6,distractor,1,redish,29,1,CR,NaN,offset_to_bckgrd
3,233,6,6,distractor,1,redish,29,1,FA_proper,544.288110733032,offset_to_bckgrd
3,234,6,5,distractor,2,green,26,1,CR,NaN,offset_to_bckgrd
3,234,6,5,target,1,redish,29,2,hit,445.595757166544,offset_to_bckgrd
3,236,6,4,target,2,green,26,1,hit,466.34734471639,offset_to_bckgrd
3,236,6,4,target,2,green,26,2,hit,434.116077423096,offset_to_bckgrd
3,240,6,5,target,1,redish,29,1,hit,428.950929641724,offset_to_bckgrd
3,247,6,2,target,2,green,26,1,hit,506.591574350993,offset_to_bckgrd
3,247,6,2,distractor,1,redish,29,2,FA_proper,406.998872756958,offset_to_bckgrd
3,250,6,5,distractor,2,green,26,1,CR,NaN,offset_to_bckgrd
3,257,6,4,target,2,green,26,1,hit,419.298617045085,offset_to_bckgrd
3,258,6,6,distractor,1,redish,29,1,CR,NaN,offset_to_bckgrd
3,259,6,6,target,2,green,26,1,hit,656.148052215576,offset_to_bckgrd
3,260,6,3,target,1,redish,29,1,hit,674.307870864868,offset_to_bckgrd
3,266,6,1,target,1,redish,29,1,hit,384.431028366089,offset_to_bckgrd
3,266,6,1,target,1,redish,29,2,hit,343.757470448812,offset_to_bckgrd
3,267,6,6,target,2,green,26,1,hit,467.086839675903,offset_to_bckgrd
3,271,7,4,distractor,1,redish,29,1,FA_proper,489.632352193197,offset_to_bckgrd
3,271,7,4,target,2,green,26,2,hit,704.376125335694,offset_to_bckgrd
3,274,7,2,distractor,1,redish,29,1,CR,NaN,offset_to_bckgrd
3,274,7,2,distractor,1,redish,29,2,FA_proper,401.332680384318,offset_to_bckgrd
3,279,7,6,distractor,1,redish,29,1,CR,NaN,offset_to_bckgrd
3,280,7,2,distractor,1,redish,29,1,CR,NaN,offset_to_bckgrd
3,280,7,2,distractor,1,redish,29,2,CR,NaN,offset_to_bckgrd
3,282,7,3,target,1,redish,29,1,hit,456.390364964803,offset_to_bckgrd
3,282,7,3,target,1,redish,29,2,hit,486.993567148844,offset_to_bckgrd
3,286,7,3,distractor,2,green,26,1,CR,NaN,offset_to_bckgrd
3,287,7,1,distractor,2,green,26,1,CR,NaN,offset_to_bckgrd
3,287,7,1,distractor,2,green,26,2,FA_proper,607.320070266724,offset_to_bckgrd
3,290,7,4,distractor,1,redish,29,1,CR,NaN,offset_to_bckgrd
3,290,7,4,target,2,green,26,2,hit,510.166978836059,offset_to_bckgrd
3,293,7,1,target,1,redish,29,1,hit,441.810035705567,offset_to_bckgrd
3,295,7,4,target,2,green,26,1,hit,491.556851069133,offset_to_bckgrd
3,296,7,1,distractor,2,green,26,1,CR,NaN,offset_to_bckgrd
3,296,7,1,distractor,2,green,26,2,CR,NaN,offset_to_bckgrd
3,298,7,5,target,1,redish,29,1,hit,464.076995849609,offset_to_bckgrd
3,298,7,5,distractor,2,green,26,2,CR,NaN,offset_to_bckgrd
3,302,7,4,target,2,green,26,1,hit,535.249360402425,offset_to_bckgrd
3,303,7,1,target,1,redish,29,1,hit,507.474311192831,offset_to_bckgrd
3,303,7,1,distractor,2,green,26,2,CR,NaN,offset_to_bckgrd
3,304,7,1,target,1,redish,29,1,hit,482.792727152507,offset_to_bckgrd
3,304,7,1,target,1,redish,29,2,miss,NaN,offset_to_bckgrd
3,306,7,4,target,2,green,26,1,hit,578.702465693156,offset_to_bckgrd
3,308,7,3,target,1,redish,29,1,hit,436.72399520874,offset_to_bckgrd
3,308,7,3,distractor,2,green,26,2,CR,NaN,offset_to_bckgrd
3,314,7,2,distractor,1,redish,29,1,CR,NaN,offset_to_bckgrd
3,314,7,2,distractor,1,redish,29,2,FA_proper,368.923950195312,offset_to_bckgrd
3,318,8,6,target,2,green,26,1,hit,423.740228017171,offset_to_bckgrd
3,325,8,6,target,2,green,26,1,hit,413.669967651368,offset_to_bckgrd
3,328,8,2,target,2,green,26,1,hit,519.377899169922,offset_to_bckgrd
3,328,8,2,target,2,green,26,2,hit,385.792382558187,offset_to_bckgrd
3,329,8,1,target,1,redish,29,1,hit,460.938437779745,offset_to_bckgrd
3,334,8,3,distractor,2,green,26,1,CR,NaN,offset_to_bckgrd
3,335,8,6,distractor,1,redish,29,1,FA_proper,372.629340489706,offset_to_bckgrd
3,336,8,2,target,2,green,26,1,hit,468.808857599895,offset_to_bckgrd
3,336,8,2,target,2,green,26,2,hit,491.865650812785,offset_to_bckgrd
3,339,8,6,distractor,1,redish,29,1,CR,NaN,offset_to_bckgrd
3,339,8,6,target,2,green,26,2,hit,516.531944274902,offset_to_bckgrd
3,342,8,1,distractor,2,green,26,1,CR,NaN,offset_to_bckgrd
3,355,8,5,distractor,2,green,26,1,FA_proper,479.869445164999,offset_to_bckgrd
3,360,8,3,target,1,redish,29,1,hit,549.767335255941,offset_to_bckgrd
3,360,8,3,target,1,redish,29,2,hit,521.145550409953,offset_to_bckgrd
3,362,9,6,target,2,green,26,1,hit,431.805308659872,offset_to_bckgrd
3,363,9,6,target,2,green,26,1,hit,476.322937011719,offset_to_bckgrd
3,363,9,6,target,2,green,26,2,hit,460.003360112508,offset_to_bckgrd
3,364,9,2,target,2,green,26,1,hit,510.496187210083,offset_to_bckgrd
3,364,9,2,distractor,1,redish,29,2,CR,NaN,offset_to_bckgrd
3,367,9,4,target,2,green,26,1,hit,589.905293782552,offset_to_bckgrd
3,373,9,6,distractor,1,redish,29,1,CR,NaN,offset_to_bckgrd
3,374,9,6,distractor,1,redish,29,1,CR,NaN,offset_to_bckgrd
3,374,9,6,target,2,green,26,2,hit,428.590329488118,offset_to_bckgrd
3,375,9,6,distractor,1,redish,29,1,CR,NaN,offset_to_bckgrd
3,375,9,6,distractor,1,redish,29,2,FA_proper,736.732419331869,offset_to_bckgrd
3,376,9,2,distractor,1,redish,29,1,CR,NaN,offset_to_bckgrd
3,377,9,3,distractor,2,green,26,1,CR,NaN,offset_to_bckgrd
3,377,9,3,target,1,redish,29,2,hit,432.565927505493,offset_to_bckgrd
3,379,9,5,target,1,redish,29,1,hit,489.493624369303,offset_to_bckgrd
3,379,9,5,distractor,2,green,26,2,CR,NaN,offset_to_bckgrd
3,394,9,4,target,2,green,26,1,hit,507.168690363566,offset_to_bckgrd
3,394,9,4,distractor,1,redish,29,2,CR,NaN,offset_to_bckgrd
3,395,9,3,target,1,redish,29,1,hit,405.743153889974,offset_to_bckgrd
3,395,9,3,distractor,2,green,26,2,CR,NaN,offset_to_bckgrd
3,398,9,3,distractor,2,green,26,1,CR,NaN,offset_to_bckgrd
3,405,9,5,distractor,2,green,26,1,CR,NaN,offset_to_bckgrd
3,409,10,2,distractor,1,redish,29,1,CR,NaN,offset_to_bckgrd
3,414,10,5,target,1,redish,29,1,hit,519.685490926107,offset_to_bckgrd
3,416,10,4,distractor,1,redish,29,1,CR,NaN,offset_to_bckgrd
3,416,10,4,target,2,green,26,2,hit,445.21017074585,offset_to_bckgrd
3,417,10,3,distractor,2,green,26,1,CR,NaN,offset_to_bckgrd
3,417,10,3,target,1,redish,29,2,hit,510.145505269368,offset_to_bckgrd
3,420,10,2,distractor,1,redish,29,1,CR,NaN,offset_to_bckgrd
3,421,10,2,target,2,green,26,1,hit,540.95287322998,offset_to_bckgrd
3,422,10,5,distractor,2,green,26,1,CR,NaN,offset_to_bckgrd
3,422,10,5,distractor,2,green,26,2,CR,NaN,offset_to_bckgrd
3,423,10,1,target,1,redish,29,1,hit,530.059417088827,offset_to_bckgrd
3,423,10,1,distractor,2,green,26,2,CR,NaN,offset_to_bckgrd
3,432,10,2,distractor,1,redish,29,1,FA_proper,471.50575319926,offset_to_bckgrd
3,434,10,4,target,2,green,26,1,hit,503.036117553711,offset_to_bckgrd
3,434,10,4,distractor,1,redish,29,2,CR,NaN,offset_to_bckgrd
3,437,10,2,distractor,1,redish,29,1,CR,NaN,offset_to_bckgrd
3,437,10,2,distractor,1,redish,29,2,CR,NaN,offset_to_bckgrd
3,441,10,3,distractor,2,green,26,1,CR,NaN,offset_to_bckgrd
3,447,10,3,target,1,redish,29,1,hit,495.237461725871,offset_to_bckgrd
3,447,10,3,distractor,2,green,26,2,CR,NaN,offset_to_bckgrd
3,448,10,2,target,2,green,26,1,hit,514.685376485189,offset_to_bckgrd
3,454,11,4,distractor,1,redish,29,1,CR,NaN,offset_to_bckgrd
3,454,11,4,distractor,1,redish,29,2,CR,NaN,offset_to_bckgrd
3,456,11,3,distractor,2,green,26,1,CR,NaN,offset_to_bckgrd
3,459,11,1,target,1,redish,29,1,hit,609.959618250529,offset_to_bckgrd
3,466,11,6,distractor,1,redish,29,1,FA_proper,571.735541025797,offset_to_bckgrd
3,466,11,6,distractor,1,redish,29,2,CR,NaN,offset_to_bckgrd
3,470,11,4,distractor,1,redish,29,1,CR,NaN,offset_to_bckgrd
3,473,11,6,distractor,1,redish,29,1,CR,NaN,offset_to_bckgrd
3,473,11,6,target,2,green,26,2,hit,599.873240788778,offset_to_bckgrd
3,483,11,3,target,1,redish,29,1,hit,657.710933685303,offset_to_bckgrd
3,483,11,3,target,1,redish,29,2,hit,372.420565287272,offset_to_bckgrd
3,484,11,6,target,2,green,26,1,hit,568.927733103435,offset_to_bckgrd
3,484,11,6,target,2,green,26,2,hit,488.953383763631,offset_to_bckgrd
3,485,11,2,target,2,green,26,1,hit,500.56300163269,offset_to_bckgrd
3,487,11,3,target,1,redish,29,1,hit,524.392668406168,offset_to_bckgrd
3,487,11,3,target,1,redish,29,2,miss,NaN,offset_to_bckgrd
3,490,11,2,target,2,green,26,1,hit,439.18399810791,offset_to_bckgrd
3,490,11,2,distractor,1,redish,29,2,CR,NaN,offset_to_bckgrd
3,492,11,2,target,2,green,26,1,hit,472.578509648641,offset_to_bckgrd
3,495,11,6,target,2,green,26,1,hit,381.584024429321,offset_to_bckgrd
3,495,11,6,distractor,1,redish,29,2,CR,NaN,offset_to_bckgrd
3,498,12,6,target,2,green,26,1,hit,424.274237950643,offset_to_bckgrd
3,500,12,3,distractor,2,green,26,1,CR,NaN,offset_to_bckgrd
3,503,12,5,distractor,2,green,26,1,CR,NaN,offset_to_bckgrd
3,503,12,5,target,1,redish,29,2,hit,554.471381505331,offset_to_bckgrd
3,505,12,1,distractor,2,green,26,1,FA_proper,521.766726175944,offset_to_bckgrd
3,505,12,1,distractor,2,green,26,2,CR,NaN,offset_to_bckgrd
3,522,12,6,distractor,1,redish,29,1,FA_proper,386.107794443766,offset_to_bckgrd
3,523,12,6,distractor,1,redish,29,1,CR,NaN,offset_to_bckgrd
3,523,12,6,distractor,1,redish,29,2,CR,NaN,offset_to_bckgrd
3,526,12,4,target,2,green,26,1,hit,415.038744608561,offset_to_bckgrd
3,526,12,4,distractor,1,redish,29,2,CR,NaN,offset_to_bckgrd
3,528,12,2,target,2,green,26,1,hit,583.151467641195,offset_to_bckgrd
3,530,12,1,distractor,2,green,26,1,CR,NaN,offset_to_bckgrd
3,533,12,5,target,1,redish,29,1,hit,467.316913604736,offset_to_bckgrd
3,533,12,5,distractor,2,green,26,2,CR,NaN,offset_to_bckgrd
3,535,12,1,target,1,redish,29,1,hit,484.453280766805,offset_to_bckgrd
3,535,12,1,target,1,redish,29,2,hit,387.244939804077,offset_to_bckgrd
3,536,12,1,distractor,2,green,26,1,CR,NaN,offset_to_bckgrd
3,537,12,5,target,1,redish,29,1,hit,523.606602350871,offset_to_bckgrd
3,542,13,3,distractor,2,green,26,1,CR,NaN,offset_to_bckgrd
3,543,13,4,distractor,1,redish,29,1,CR,NaN,offset_to_bckgrd
3,543,13,4,distractor,1,redish,29,2,FA_proper,370.05132039388,offset_to_bckgrd
3,546,13,6,distractor,1,redish,29,1,CR,NaN,offset_to_bckgrd
3,546,13,6,distractor,1,redish,29,2,CR,NaN,offset_to_bckgrd
3,549,13,4,target,2,green,26,1,hit,571.721982955933,offset_to_bckgrd
3,550,13,4,distractor,1,redish,29,1,CR,NaN,offset_to_bckgrd
3,553,13,5,target,1,redish,29,1,hit,459.563652674357,offset_to_bckgrd
3,553,13,5,target,1,redish,29,2,hit,467.544301350912,offset_to_bckgrd
3,554,13,3,distractor,2,green,26,1,CR,NaN,offset_to_bckgrd
3,556,13,3,distractor,2,green,26,1,CR,NaN,offset_to_bckgrd
3,556,13,3,distractor,2,green,26,2,CR,NaN,offset_to_bckgrd
3,558,13,5,distractor,2,green,26,1,CR,NaN,offset_to_bckgrd
3,560,13,1,target,1,redish,29,1,hit,525.870498021443,offset_to_bckgrd
3,560,13,1,distractor,2,green,26,2,CR,NaN,offset_to_bckgrd
3,568,13,6,target,2,green,26,1,hit,545.651737848917,offset_to_bckgrd
3,568,13,6,target,2,green,26,2,hit,855.838743845622,offset_to_bckgrd
3,570,13,1,target,1,redish,29,1,hit,482.340463002523,offset_to_bckgrd
3,570,13,1,distractor,2,green,26,2,CR,NaN,offset_to_bckgrd
3,579,13,6,target,2,green,26,1,hit,548.566055297852,offset_to_bckgrd
3,580,13,5,distractor,2,green,26,1,CR,NaN,offset_to_bckgrd
3,584,13,1,target,1,redish,29,1,hit,477.152427037557,offset_to_bckgrd
3,584,13,1,target,1,redish,29,2,hit,524.99213218689,offset_to_bckgrd
3,588,14,1,distractor,2,green,26,1,CR,NaN,offset_to_bckgrd
3,591,14,6,target,2,green,26,1,hit,439.375162124634,offset_to_bckgrd
3,595,14,4,distractor,1,redish,29,1,CR,NaN,offset_to_bckgrd
3,595,14,4,distractor,1,redish,29,2,CR,NaN,offset_to_bckgrd
3,597,14,4,target,2,green,26,1,hit,583.216810226441,offset_to_bckgrd
3,597,14,4,distractor,1,redish,29,2,CR,NaN,offset_to_bckgrd
3,598,14,3,target,1,redish,29,1,hit,510.306787490845,offset_to_bckgrd
3,598,14,3,distractor,2,green,26,2,CR,NaN,offset_to_bckgrd
3,607,14,1,distractor,2,green,26,1,CR,NaN,offset_to_bckgrd
3,607,14,1,target,1,redish,29,2,hit,650.42249361674,offset_to_bckgrd
3,608,14,2,target,2,green,26,1,hit,588.489278157552,offset_to_bckgrd
3,608,14,2,distractor,1,redish,29,2,CR,NaN,offset_to_bckgrd
3,610,14,5,distractor,2,green,26,1,CR,NaN,offset_to_bckgrd
3,614,14,2,distractor,1,redish,29,1,CR,NaN,offset_to_bckgrd
3,616,14,2,distractor,1,redish,29,1,CR,NaN,offset_to_bckgrd
3,616,14,2,target,2,green,26,2,hit,556.757879257202,offset_to_bckgrd
3,617,14,4,target,2,green,26,1,hit,418.307892481486,offset_to_bckgrd
3,618,14,3,target,1,redish,29,1,hit,442.494694391886,offset_to_bckgrd
3,620,14,2,target,2,green,26,1,hit,554.859240849813,offset_to_bckgrd
3,624,14,1,distractor,2,green,26,1,CR,NaN,offset_to_bckgrd
3,629,14,4,distractor,1,redish,29,1,FA_proper,524.237330754598,offset_to_bckgrd
3,630,14,5,distractor,2,green,26,1,CR,NaN,offset_to_bckgrd
3,630,14,5,distractor,2,green,26,2,CR,NaN,offset_to_bckgrd
3,641,15,3,distractor,2,green,26,1,CR,NaN,offset_to_bckgrd
3,641,15,3,distractor,2,green,26,2,CR,NaN,offset_to_bckgrd
3,644,15,2,distractor,1,redish,29,1,FA_proper,996.774101257324,offset_to_bckgrd
3,645,15,5,target,1,redish,29,1,hit,640.621264775594,offset_to_bckgrd
3,646,15,1,distractor,2,green,26,1,CR,NaN,offset_to_bckgrd
3,646,15,1,target,1,redish,29,2,hit,561.212825775146,offset_to_bckgrd
3,649,15,4,distractor,1,redish,29,1,CR,NaN,offset_to_bckgrd
3,650,15,3,target,1,redish,29,1,hit,608.55393409729,offset_to_bckgrd
3,650,15,3,target,1,redish,29,2,hit,434.713347752889,offset_to_bckgrd
3,653,15,2,target,2,green,26,1,hit,519.379218419393,offset_to_bckgrd
3,656,15,4,distractor,1,redish,29,1,CR,NaN,offset_to_bckgrd
3,656,15,4,target,2,green,26,2,hit,551.46598815918,offset_to_bckgrd
3,659,15,1,distractor,2,green,26,1,CR,NaN,offset_to_bckgrd
3,663,15,2,target,2,green,26,1,hit,540.278959274292,offset_to_bckgrd
3,663,15,2,target,2,green,26,2,miss,NaN,offset_to_bckgrd
3,664,15,3,target,1,redish,29,1,hit,536.892398198446,offset_to_bckgrd
3,666,15,1,target,1,redish,29,1,hit,488.975048065186,offset_to_bckgrd
3,666,15,1,distractor,2,green,26,2,CR,NaN,offset_to_bckgrd
3,667,15,6,target,2,green,26,1,hit,451.257038116456,offset_to_bckgrd
3,667,15,6,distractor,1,redish,29,2,CR,NaN,offset_to_bckgrd
3,668,15,6,target,2,green,26,1,hit,447.87228902181,offset_to_bckgrd
3,668,15,6,target,2,green,26,2,hit,429.84135945638,offset_to_bckgrd
3,669,15,4,distractor,1,redish,29,1,FA_proper,490.388917922974,offset_to_bckgrd
3,677,16,5,distractor,2,green,26,1,CR,NaN,offset_to_bckgrd
3,678,16,2,target,2,green,26,1,hit,519.22566095988,offset_to_bckgrd
3,678,16,2,distractor,1,redish,29,2,CR,NaN,offset_to_bckgrd
3,681,16,1,distractor,2,green,26,1,CR,NaN,offset_to_bckgrd
3,682,16,3,target,1,redish,29,1,hit,538.161945343018,offset_to_bckgrd
3,684,16,5,distractor,2,green,26,1,CR,NaN,offset_to_bckgrd
3,684,16,5,target,1,redish,29,2,hit,518.207661310832,offset_to_bckgrd
3,689,16,2,distractor,1,redish,29,1,CR,NaN,offset_to_bckgrd
3,689,16,2,distractor,1,redish,29,2,CR,NaN,offset_to_bckgrd
3,693,16,5,target,1,redish,29,1,hit,456.604178746541,offset_to_bckgrd
3,696,16,1,distractor,2,green,26,1,CR,NaN,offset_to_bckgrd
3,696,16,1,target,1,redish,29,2,hit,671.603647867839,offset_to_bckgrd
3,697,16,3,distractor,2,green,26,1,CR,NaN,offset_to_bckgrd
3,697,16,3,distractor,2,green,26,2,CR,NaN,offset_to_bckgrd
3,698,16,1,distractor,2,green,26,1,CR,NaN,offset_to_bckgrd
3,698,16,1,distractor,2,green,26,2,CR,NaN,offset_to_bckgrd
3,700,16,6,target,2,green,26,1,hit,506.856791178385,offset_to_bckgrd
3,700,16,6,distractor,1,redish,29,2,CR,NaN,offset_to_bckgrd
3,712,16,2,distractor,1,redish,29,1,CR,NaN,offset_to_bckgrd
3,712,16,2,target,2,green,26,2,hit,359.435987472534,offset_to_bckgrd
3,715,16,1,distractor,2,green,26,1,CR,NaN,offset_to_bckgrd
3,715,16,1,target,1,redish,29,2,hit,345.580863952637,offset_to_bckgrd
3,716,16,4,distractor,1,redish,29,1,CR,NaN,offset_to_bckgrd
3,716,16,4,distractor,1,redish,29,2,CR,NaN,offset_to_bckgrd
3,717,16,1,target,1,redish,29,1,hit,539.049323399861,offset_to_bckgrd
3,717,16,1,target,1,redish,29,2,hit,405.464760462442,offset_to_bckgrd
3,718,16,2,distractor,1,redish,29,1,CR,NaN,offset_to_bckgrd
3,722,17,4,distractor,1,redish,29,1,CR,NaN,offset_to_bckgrd
3,726,17,3,target,1,redish,29,1,hit,560.753377278646,offset_to_bckgrd
3,730,17,6,distractor,1,redish,29,1,CR,NaN,offset_to_bckgrd
3,733,17,3,distractor,2,green,26,1,CR,NaN,offset_to_bckgrd
3,733,17,3,distractor,2,green,26,2,CR,NaN,offset_to_bckgrd
3,734,17,5,target,1,redish,29,1,hit,520.338424046834,offset_to_bckgrd
3,734,17,5,distractor,2,green,26,2,CR,NaN,offset_to_bckgrd
3,735,17,5,target,1,redish,29,1,hit,507.33536084493,offset_to_bckgrd
3,735,17,5,target,1,redish,29,2,hit,458.914629618327,offset_to_bckgrd
3,736,17,3,target,1,redish,29,1,hit,477.016846338908,offset_to_bckgrd
3,737,17,4,distractor,1,redish,29,1,CR,NaN,offset_to_bckgrd
3,737,17,4,distractor,1,redish,29,2,CR,NaN,offset_to_bckgrd
3,740,17,5,target,1,redish,29,1,hit,545.812845230103,offset_to_bckgrd
3,743,17,2,distractor,1,redish,29,1,CR,NaN,offset_to_bckgrd
3,746,17,2,target,2,green,26,1,hit,460.934336980184,offset_to_bckgrd
3,746,17,2,distractor,1,redish,29,2,CR,NaN,offset_to_bckgrd
3,751,17,4,target,2,green,26,1,hit,442.486317952474,offset_to_bckgrd
3,751,17,4,target,2,green,26,2,hit,525.563224156698,offset_to_bckgrd
3,753,17,5,distractor,2,green,26,1,CR,NaN,offset_to_bckgrd
3,753,17,5,distractor,2,green,26,2,CR,NaN,offset_to_bckgrd
3,756,17,6,distractor,1,redish,29,1,CR,NaN,offset_to_bckgrd
3,760,17,2,distractor,1,redish,29,1,CR,NaN,offset_to_bckgrd
3,760,17,2,target,2,green,26,2,hit,503.735065460205,offset_to_bckgrd
3,761,17,3,distractor,2,green,26,1,FA_proper,584.621095657349,offset_to_bckgrd
3,761,17,3,target,1,redish,29,2,hit,453.627014160156,offset_to_bckgrd
3,763,17,2,distractor,1,redish,29,1,CR,NaN,offset_to_bckgrd
3,763,17,2,distractor,1,redish,29,2,CR,NaN,offset_to_bckgrd
3,772,18,2,distractor,1,redish,29,1,FA_proper,489.212942123413,offset_to_bckgrd
3,772,18,2,target,2,green,26,2,hit,435.806528727213,offset_to_bckgrd
3,777,18,5,target,1,redish,29,1,hit,450.357230504354,offset_to_bckgrd
3,779,18,6,target,2,green,26,1,hit,467.423009872436,offset_to_bckgrd
3,779,18,6,distractor,1,redish,29,2,CR,NaN,offset_to_bckgrd
3,784,18,5,target,1,redish,29,1,hit,466.568040847779,offset_to_bckgrd
3,784,18,5,target,1,redish,29,2,hit,388.770325978597,offset_to_bckgrd
3,787,18,6,distractor,1,redish,29,1,CR,NaN,offset_to_bckgrd
3,787,18,6,distractor,1,redish,29,2,CR,NaN,offset_to_bckgrd
3,789,18,4,distractor,1,redish,29,1,CR,NaN,offset_to_bckgrd
3,790,18,5,target,1,redish,29,1,hit,638.415273030599,offset_to_bckgrd
3,790,18,5,target,1,redish,29,2,hit,582.032553354899,offset_to_bckgrd
3,791,18,6,target,2,green,26,1,hit,687.34834988912,offset_to_bckgrd
3,793,18,3,distractor,2,green,26,1,CR,NaN,offset_to_bckgrd
3,794,18,4,distractor,1,redish,29,1,FA_proper,588.949918746948,offset_to_bckgrd
3,796,18,3,distractor,2,green,26,1,CR,NaN,offset_to_bckgrd
3,798,18,5,target,1,redish,29,1,hit,424.893045425415,offset_to_bckgrd
3,798,18,5,target,1,redish,29,2,hit,458.790016174316,offset_to_bckgrd
3,799,18,1,target,1,redish,29,1,hit,443.212493260702,offset_to_bckgrd
3,800,18,6,target,2,green,26,1,hit,526.988172531128,offset_to_bckgrd
3,802,18,3,distractor,2,green,26,1,CR,NaN,offset_to_bckgrd
3,802,18,3,distractor,2,green,26,2,CR,NaN,offset_to_bckgrd
3,806,18,6,distractor,1,redish,29,1,FA_proper,465.787394841512,offset_to_bckgrd
3,806,18,6,target,2,green,26,2,hit,526.986344655355,offset_to_bckgrd
3,807,18,4,target,2,green,26,1,hit,606.917874018351,offset_to_bckgrd
3,815,19,2,distractor,1,redish,29,1,CR,NaN,offset_to_bckgrd
3,817,19,6,target,2,green,26,1,hit,573.742230733235,offset_to_bckgrd
3,818,19,5,distractor,2,green,26,1,FA_proper,518.317206700643,offset_to_bckgrd
3,818,19,5,target,1,redish,29,2,hit,466.6685740153,offset_to_bckgrd
3,820,19,1,distractor,2,green,26,1,CR,NaN,offset_to_bckgrd
3,820,19,1,target,1,redish,29,2,hit,482.4049949646,offset_to_bckgrd
3,822,19,1,target,1,redish,29,1,hit,710.178089141846,offset_to_bckgrd
3,824,19,3,target,1,redish,29,1,hit,522.638527552287,offset_to_bckgrd
3,826,19,4,distractor,1,redish,29,1,CR,NaN,offset_to_bckgrd
3,828,19,3,distractor,2,green,26,1,CR,NaN,offset_to_bckgrd
3,834,19,2,target,2,green,26,1,hit,449.905522664388,offset_to_bckgrd
3,834,19,2,target,2,green,26,2,hit,457.26687113444,offset_to_bckgrd
3,835,19,4,distractor,1,redish,29,1,FA_proper,570.697704950968,offset_to_bckgrd
3,836,19,2,distractor,1,redish,29,1,CR,NaN,offset_to_bckgrd
3,840,19,2,target,2,green,26,1,hit,545.571819941203,offset_to_bckgrd
3,843,19,6,distractor,1,redish,29,1,CR,NaN,offset_to_bckgrd
3,845,19,3,distractor,2,green,26,1,CR,NaN,offset_to_bckgrd
3,847,19,1,target,1,redish,29,1,hit,432.503350575765,offset_to_bckgrd
3,849,19,2,target,2,green,26,1,hit,448.25291633606,offset_to_bckgrd
3,851,19,1,distractor,2,green,26,1,CR,NaN,offset_to_bckgrd
3,854,19,1,distractor,2,green,26,1,CR,NaN,offset_to_bckgrd
3,856,20,5,distractor,2,green,26,1,CR,NaN,offset_to_bckgrd
3,856,20,5,target,1,redish,29,2,hit,510.404698053996,offset_to_bckgrd
3,860,20,1,target,1,redish,29,1,hit,487.193965911865,offset_to_bckgrd
3,860,20,1,target,1,redish,29,2,hit,421.273040771484,offset_to_bckgrd
3,862,20,2,distractor,1,redish,29,1,CR,NaN,offset_to_bckgrd
3,865,20,4,target,2,green,26,1,hit,433.15642674764,offset_to_bckgrd
3,872,20,5,target,1,redish,29,1,hit,479.149182637533,offset_to_bckgrd
3,872,20,5,target,1,redish,29,2,hit,405.750036239624,offset_to_bckgrd
3,876,20,1,target,1,redish,29,1,hit,470.390399297078,offset_to_bckgrd
3,881,20,4,target,2,green,26,1,hit,521.264346440633,offset_to_bckgrd
3,881,20,4,target,2,green,26,2,hit,432.417233784993,offset_to_bckgrd
3,885,20,3,target,1,redish,29,1,hit,495.953496297201,offset_to_bckgrd
3,885,20,3,distractor,2,green,26,2,CR,NaN,offset_to_bckgrd
3,889,20,1,target,1,redish,29,1,hit,453.956206639607,offset_to_bckgrd
3,889,20,1,distractor,2,green,26,2,CR,NaN,offset_to_bckgrd
3,890,20,5,target,1,redish,29,1,hit,469.054349263509,offset_to_bckgrd
3,894,20,4,target,2,green,26,1,hit,505.659055709839,offset_to_bckgrd
3,896,20,6,distractor,1,redish,29,1,CR,NaN,offset_to_bckgrd
3,900,20,3,distractor,2,green,26,1,CR,NaN,offset_to_bckgrd
3,900,20,3,distractor,2,green,26,2,CR,NaN,offset_to_bckgrd
4,3,1,3,distractor,2,blue,29,1,FA_proper,567.975870768229,offset_to_bckgrd
4,4,1,3,distractor,2,blue,29,1,FA_proper,494.962708155314,offset_to_bckgrd
4,4,1,3,target,1,green,26,2,miss,NaN,offset_to_bckgrd
4,5,1,4,target,2,blue,29,1,hit,461.546945571899,offset_to_bckgrd
4,7,1,2,target,2,blue,29,1,hit,434.266948699951,offset_to_bckgrd
4,7,1,2,target,2,blue,29,2,hit,528.876241048177,offset_to_bckgrd
4,9,1,4,distractor,1,green,26,1,FA_proper,467.607657114665,offset_to_bckgrd
4,13,1,5,target,1,green,26,1,hit,531.00700378418,offset_to_bckgrd
4,18,1,2,distractor,1,green,26,1,FA_proper,452.582248051961,offset_to_bckgrd
4,18,1,2,target,2,blue,29,2,hit,801.084629694621,offset_to_bckgrd
4,19,1,3,distractor,2,blue,29,1,CR,NaN,offset_to_bckgrd
4,19,1,3,distractor,2,blue,29,2,CR,NaN,offset_to_bckgrd
4,20,1,1,target,1,green,26,1,hit,518.332640329997,offset_to_bckgrd
4,21,1,5,distractor,2,blue,29,1,CR,NaN,offset_to_bckgrd
4,23,1,2,target,2,blue,29,1,hit,582.149934768677,offset_to_bckgrd
4,29,1,3,target,1,green,26,1,hit,432.165829340617,offset_to_bckgrd
4,35,1,4,target,2,blue,29,1,hit,643.52544148763,offset_to_bckgrd
4,35,1,4,distractor,1,green,26,2,CR,NaN,offset_to_bckgrd
4,39,1,1,distractor,2,blue,29,1,FA_proper,467.00078646342,offset_to_bckgrd
4,39,1,1,distractor,2,blue,29,2,CR,NaN,offset_to_bckgrd
4,41,1,4,distractor,1,green,26,1,CR,NaN,offset_to_bckgrd
4,41,1,4,target,2,blue,29,2,hit,559.663550059,offset_to_bckgrd
4,44,1,2,distractor,1,green,26,1,FA_proper,528.848075866699,offset_to_bckgrd
4,44,1,2,target,2,blue,29,2,miss,NaN,offset_to_bckgrd
4,45,1,6,distractor,1,green,26,1,CR,NaN,offset_to_bckgrd
4,49,2,5,distractor,2,blue,29,1,FA_proper,471.36861483256,offset_to_bckgrd
4,51,2,4,target,2,blue,29,1,hit,567.449315388998,offset_to_bckgrd
4,52,2,4,target,2,blue,29,1,hit,503.223848342896,offset_to_bckgrd
4,55,2,1,distractor,2,blue,29,1,CR,NaN,offset_to_bckgrd
4,58,2,2,distractor,1,green,26,1,FA_proper,625.957330067953,offset_to_bckgrd
4,68,2,4,distractor,1,green,26,1,CR,NaN,offset_to_bckgrd
4,68,2,4,distractor,1,green,26,2,CR,NaN,offset_to_bckgrd
4,74,2,6,target,2,blue,29,1,hit,484.397157033285,offset_to_bckgrd
4,74,2,6,target,2,blue,29,2,miss,NaN,offset_to_bckgrd
4,76,2,3,distractor,2,blue,29,1,FA_proper,400.271526972453,offset_to_bckgrd
4,76,2,3,target,1,green,26,2,hit,682.953294118246,offset_to_bckgrd
4,81,2,4,target,2,blue,29,1,hit,468.070618311564,offset_to_bckgrd
4,81,2,4,target,2,blue,29,2,hit,817.919381459554,offset_to_bckgrd
4,82,2,2,distractor,1,green,26,1,CR,NaN,offset_to_bckgrd
4,86,2,3,target,1,green,26,1,hit,385.291814804077,offset_to_bckgrd
4,86,2,3,distractor,2,blue,29,2,CR,NaN,offset_to_bckgrd
4,88,2,5,distractor,2,blue,29,1,CR,NaN,offset_to_bckgrd
4,88,2,5,target,1,green,26,2,miss,NaN,offset_to_bckgrd
4,90,2,1,distractor,2,blue,29,1,CR,NaN,offset_to_bckgrd
4,91,3,4,distractor,1,green,26,1,CR,NaN,offset_to_bckgrd
4,91,3,4,target,2,blue,29,2,hit,693.875614802042,offset_to_bckgrd
4,92,3,4,target,2,blue,29,1,hit,548.64296913147,offset_to_bckgrd
4,92,3,4,distractor,1,green,26,2,CR,NaN,offset_to_bckgrd
4,96,3,2,target,2,blue,29,1,hit,522.604942321777,offset_to_bckgrd
4,103,3,4,target,2,blue,29,1,hit,630.828444163004,offset_to_bckgrd
4,108,3,1,distractor,2,blue,29,1,CR,NaN,offset_to_bckgrd
4,108,3,1,target,1,green,26,2,hit,507.785813013712,offset_to_bckgrd
4,113,3,3,target,1,green,26,1,hit,559.394025802612,offset_to_bckgrd
4,114,3,3,distractor,2,blue,29,1,CR,NaN,offset_to_bckgrd
4,114,3,3,distractor,2,blue,29,2,CR,NaN,offset_to_bckgrd
4,117,3,5,target,1,green,26,1,hit,838.093630472819,offset_to_bckgrd
4,117,3,5,target,1,green,26,2,hit,629.135576883952,offset_to_bckgrd
4,119,3,6,distractor,1,green,26,1,CR,NaN,offset_to_bckgrd
4,119,3,6,target,2,blue,29,2,hit,857.43080774943,offset_to_bckgrd
4,121,3,1,distractor,2,blue,29,1,CR,NaN,offset_to_bckgrd
4,121,3,1,target,1,green,26,2,hit,613.146511713664,offset_to_bckgrd
4,122,3,5,target,1,green,26,1,hit,634.377638498942,offset_to_bckgrd
4,129,3,1,distractor,2,blue,29,1,CR,NaN,offset_to_bckgrd
4,133,3,1,distractor,2,blue,29,1,CR,NaN,offset_to_bckgrd
4,135,3,3,target,1,green,26,1,hit,614.125696818034,offset_to_bckgrd
4,138,4,1,target,1,green,26,1,hit,544.063631693522,offset_to_bckgrd
4,138,4,1,distractor,2,blue,29,2,CR,NaN,offset_to_bckgrd
4,142,4,4,distractor,1,green,26,1,CR,NaN,offset_to_bckgrd
4,148,4,1,target,1,green,26,1,hit,516.0497824351,offset_to_bckgrd
4,148,4,1,target,1,green,26,2,hit,491.701030731202,offset_to_bckgrd
4,151,4,4,distractor,1,green,26,1,CR,NaN,offset_to_bckgrd
4,151,4,4,target,2,blue,29,2,hit,500.862614313761,offset_to_bckgrd
4,153,4,2,target,2,blue,29,1,hit,526.613728205363,offset_to_bckgrd
4,156,4,2,distractor,1,green,26,1,CR,NaN,offset_to_bckgrd
4,162,4,4,target,2,blue,29,1,hit,645.978339513143,offset_to_bckgrd
4,162,4,4,target,2,blue,29,2,hit,677.348725001017,offset_to_bckgrd
4,163,4,1,target,1,green,26,1,hit,525.098816553751,offset_to_bckgrd
4,163,4,1,target,1,green,26,2,miss,NaN,offset_to_bckgrd
4,164,4,2,distractor,1,green,26,1,FA_proper,519.220193227132,offset_to_bckgrd
4,166,4,6,target,2,blue,29,1,hit,611.470254262288,offset_to_bckgrd
4,170,4,6,distractor,1,green,26,1,FA_proper,621.908728281657,offset_to_bckgrd
4,170,4,6,target,2,blue,29,2,hit,701.897509892782,offset_to_bckgrd
4,173,4,1,target,1,green,26,1,hit,505.861632029215,offset_to_bckgrd
4,181,5,6,distractor,1,green,26,1,CR,NaN,offset_to_bckgrd
4,182,5,4,distractor,1,green,26,1,CR,NaN,offset_to_bckgrd
4,186,5,5,distractor,2,blue,29,1,CR,NaN,offset_to_bckgrd
4,190,5,5,distractor,2,blue,29,1,FA_proper,620.435047149658,offset_to_bckgrd
4,190,5,5,distractor,2,blue,29,2,CR,NaN,offset_to_bckgrd
4,191,5,6,distractor,1,green,26,1,CR,NaN,offset_to_bckgrd
4,191,5,6,target,2,blue,29,2,hit,547.317488988241,offset_to_bckgrd
4,195,5,1,target,1,green,26,1,hit,503.905375798543,offset_to_bckgrd
4,199,5,3,distractor,2,blue,29,1,FA_proper,983.580334981283,offset_to_bckgrd
4,199,5,3,distractor,2,blue,29,2,CR,NaN,offset_to_bckgrd
4,200,5,2,distractor,1,green,26,1,FA_proper,547.994089126587,offset_to_bckgrd
4,200,5,2,target,2,blue,29,2,hit,898.600323994955,offset_to_bckgrd
4,201,5,6,distractor,1,green,26,1,CR,NaN,offset_to_bckgrd
4,201,5,6,distractor,1,green,26,2,FA_proper,621.509250005086,offset_to_bckgrd
4,202,5,2,target,2,blue,29,1,hit,521.407842636108,offset_to_bckgrd
4,202,5,2,distractor,1,green,26,2,CR,NaN,offset_to_bckgrd
4,207,5,2,target,2,blue,29,1,hit,491.029977798462,offset_to_bckgrd
4,208,5,4,target,2,blue,29,1,hit,544.830211003622,offset_to_bckgrd
4,208,5,4,target,2,blue,29,2,hit,822.814257939656,offset_to_bckgrd
4,212,5,6,distractor,1,green,26,1,CR,NaN,offset_to_bckgrd
4,212,5,6,distractor,1,green,26,2,CR,NaN,offset_to_bckgrd
4,213,5,6,distractor,1,green,26,1,CR,NaN,offset_to_bckgrd
4,214,5,2,distractor,1,green,26,1,CR,NaN,offset_to_bckgrd
4,214,5,2,target,2,blue,29,2,hit,519.194714228312,offset_to_bckgrd
4,215,5,6,target,2,blue,29,1,hit,781.460412343344,offset_to_bckgrd
4,217,5,6,target,2,blue,29,1,hit,467.977539698283,offset_to_bckgrd
4,217,5,6,distractor,1,green,26,2,FA_proper,531.406831741333,offset_to_bckgrd
4,218,5,3,target,1,green,26,1,miss,NaN,offset_to_bckgrd
4,218,5,3,target,1,green,26,2,miss,NaN,offset_to_bckgrd
4,219,5,3,target,1,green,26,1,hit,615.442132949829,offset_to_bckgrd
4,220,5,5,target,1,green,26,1,hit,522.74022102356,offset_to_bckgrd
4,220,5,5,target,1,green,26,2,hit,560.18541653951,offset_to_bckgrd
4,221,5,2,target,2,blue,29,1,hit,548.968124389648,offset_to_bckgrd
4,222,5,4,target,2,blue,29,1,hit,534.945551554362,offset_to_bckgrd
4,222,5,4,distractor,1,green,26,2,CR,NaN,offset_to_bckgrd
4,226,6,1,target,1,green,26,1,miss,NaN,offset_to_bckgrd
4,226,6,1,distractor,2,blue,29,2,CR,NaN,offset_to_bckgrd
4,227,6,4,target,2,blue,29,1,hit,450.612433751424,offset_to_bckgrd
4,227,6,4,target,2,blue,29,2,hit,568.392181396484,offset_to_bckgrd
4,229,6,4,distractor,1,green,26,1,FA_proper,633.375120162964,offset_to_bckgrd
4,232,6,1,distractor,2,blue,29,1,CR,NaN,offset_to_bckgrd
4,232,6,1,target,1,green,26,2,hit,555.762831370036,offset_to_bckgrd
4,234,6,1,target,1,green,26,1,hit,477.445983886719,offset_to_bckgrd
4,234,6,1,target,1,green,26,2,hit,589.793237050374,offset_to_bckgrd
4,235,6,5,target,1,green,26,1,hit,529.581387837728,offset_to_bckgrd
4,236,6,3,target,1,green,26,1,hit,484.661960601807,offset_to_bckgrd
4,236,6,3,distractor,2,blue,29,2,CR,NaN,offset_to_bckgrd
4,240,6,5,distractor,2,blue,29,1,CR,NaN,offset_to_bckgrd
4,252,6,5,target,1,green,26,1,hit,520.842250188192,offset_to_bckgrd
4,252,6,5,distractor,2,blue,29,2,CR,NaN,offset_to_bckgrd
4,257,6,3,distractor,2,blue,29,1,CR,NaN,offset_to_bckgrd
4,259,6,1,target,1,green,26,1,miss,NaN,offset_to_bckgrd
4,259,6,1,distractor,2,blue,29,2,CR,NaN,offset_to_bckgrd
4,265,6,3,target,1,green,26,1,hit,566.767613093058,offset_to_bckgrd
4,265,6,3,distractor,2,blue,29,2,CR,NaN,offset_to_bckgrd
4,272,7,6,distractor,1,green,26,1,CR,NaN,offset_to_bckgrd
4,272,7,6,target,2,blue,29,2,hit,469.612201054891,offset_to_bckgrd
4,277,7,5,distractor,2,blue,29,1,FA_proper,391.203339894613,offset_to_bckgrd
4,280,7,4,distractor,1,green,26,1,FA_proper,743.98562113444,offset_to_bckgrd
4,282,7,4,distractor,1,green,26,1,CR,NaN,offset_to_bckgrd
4,288,7,1,distractor,2,blue,29,1,CR,NaN,offset_to_bckgrd
4,290,7,4,distractor,1,green,26,1,CR,NaN,offset_to_bckgrd
4,291,7,4,target,2,blue,29,1,hit,573.367881774902,offset_to_bckgrd
4,294,7,3,distractor,2,blue,29,1,CR,NaN,offset_to_bckgrd
4,295,7,1,target,1,green,26,1,hit,589.269876480103,offset_to_bckgrd
4,297,7,3,distractor,2,blue,29,1,CR,NaN,offset_to_bckgrd
4,297,7,3,distractor,2,blue,29,2,CR,NaN,offset_to_bckgrd
4,300,7,2,target,2,blue,29,1,hit,582.347329457601,offset_to_bckgrd
4,300,7,2,distractor,1,green,26,2,CR,NaN,offset_to_bckgrd
4,301,7,1,distractor,2,blue,29,1,CR,NaN,offset_to_bckgrd
4,301,7,1,target,1,green,26,2,hit,556.891600290935,offset_to_bckgrd
4,302,7,4,target,2,blue,29,1,hit,560.936752955119,offset_to_bckgrd
4,304,7,4,target,2,blue,29,1,hit,722.739934921265,offset_to_bckgrd
4,310,7,2,distractor,1,green,26,1,FA_proper,528.374147415161,offset_to_bckgrd
4,310,7,2,distractor,1,green,26,2,CR,NaN,offset_to_bckgrd
4,311,7,5,target,1,green,26,1,hit,854.24067179362,offset_to_bckgrd
4,311,7,5,target,1,green,26,2,hit,590.147336324056,offset_to_bckgrd
4,317,8,2,distractor,1,green,26,1,FA_proper,530.613406499227,offset_to_bckgrd
4,319,8,6,distractor,1,green,26,1,CR,NaN,offset_to_bckgrd
4,320,8,1,target,1,green,26,1,hit,499.301910400391,offset_to_bckgrd
4,324,8,1,target,1,green,26,1,hit,554.818646113078,offset_to_bckgrd
4,324,8,1,target,1,green,26,2,hit,471.869484583537,offset_to_bckgrd
4,325,8,6,distractor,1,green,26,1,CR,NaN,offset_to_bckgrd
4,326,8,5,target,1,green,26,1,hit,576.620737711589,offset_to_bckgrd
4,326,8,5,distractor,2,blue,29,2,CR,NaN,offset_to_bckgrd
4,328,8,2,target,2,blue,29,1,hit,515.364249547323,offset_to_bckgrd
4,330,8,4,target,2,blue,29,1,hit,603.428888320923,offset_to_bckgrd
4,331,8,1,target,1,green,26,1,hit,676.538674036662,offset_to_bckgrd
4,331,8,1,distractor,2,blue,29,2,CR,NaN,offset_to_bckgrd
4,333,8,5,distractor,2,blue,29,1,CR,NaN,offset_to_bckgrd
4,334,8,6,distractor,1,green,26,1,FA_proper,507.39803314209,offset_to_bckgrd
4,334,8,6,distractor,1,green,26,2,CR,NaN,offset_to_bckgrd
4,335,8,3,target,1,green,26,1,hit,516.862281163534,offset_to_bckgrd
4,335,8,3,target,1,green,26,2,hit,484.612894058228,offset_to_bckgrd
4,337,8,5,distractor,2,blue,29,1,CR,NaN,offset_to_bckgrd
4,337,8,5,target,1,green,26,2,hit,581.740872065226,offset_to_bckgrd
4,339,8,2,distractor,1,green,26,1,CR,NaN,offset_to_bckgrd
4,341,8,3,distractor,2,blue,29,1,CR,NaN,offset_to_bckgrd
4,341,8,3,target,1,green,26,2,hit,587.766075134278,offset_to_bckgrd
4,345,8,5,target,1,green,26,1,hit,502.923281987508,offset_to_bckgrd
4,348,8,4,distractor,1,green,26,1,CR,NaN,offset_to_bckgrd
4,349,8,6,target,2,blue,29,1,hit,548.519722620646,offset_to_bckgrd
4,351,8,5,target,1,green,26,1,hit,558.695491154989,offset_to_bckgrd
4,351,8,5,distractor,2,blue,29,2,CR,NaN,offset_to_bckgrd
4,352,8,3,target,1,green,26,1,hit,605.488920211792,offset_to_bckgrd
4,352,8,3,distractor,2,blue,29,2,CR,NaN,offset_to_bckgrd
4,353,8,3,target,1,green,26,1,hit,890.738916397095,offset_to_bckgrd
4,356,8,6,target,2,blue,29,1,hit,462.440919876099,offset_to_bckgrd
4,356,8,6,target,2,blue,29,2,hit,550.39955774943,offset_to_bckgrd
4,357,8,4,target,2,blue,29,1,hit,519.425328572591,offset_to_bckgrd
